Micros,Sats,Lat,Lon,HDOP,Ax,Ay,Az,Gx,Gy,Gz,Mx,My,Mz
7755901,0,0,0,99.90,-0.823,-0.190,-0.476,0.750,6.438,0.344,3.69,65.65,-4.55
7766020,0,0,0,99.90,-0.820,-0.192,-0.473,0.781,5.219,0.562,3.93,65.70,-4.29
7775976,0,0,0,99.90,-0.813,-0.193,-0.470,0.844,4.375,0.750,4.03,65.68,-4.34
7785931,0,0,0,99.90,-0.806,-0.192,-0.467,0.844,4.094,0.781,3.93,65.55,-4.47
7795905,0,0,0,99.90,-0.800,-0.189,-0.463,0.781,4.375,0.656,3.87,65.62,-4.73
7805931,0,0,0,99.90,-0.797,-0.188,-0.459,0.719,4.969,0.375,3.90,65.65,-4.73
7816000,0,0,0,99.90,-0.795,-0.188,-0.457,0.938,6.375,-0.219,4.00,65.75,-4.58
7826050,0,0,0,99.90,-0.795,-0.193,-0.457,1.125,6.938,-0.438,4.08,65.78,-4.39
7836161,0,0,0,99.90,-0.797,-0.194,-0.459,1.281,7.406,-0.531,4.11,65.73,-4.39
7846122,0,0,0,99.90,-0.800,-0.194,-0.461,1.344,7.719,-0.594,4.08,65.68,-4.34
7856038,0,0,0,99.90,-0.803,-0.193,-0.463,1.375,7.906,-0.594,3.95,65.81,-4.52
7866081,0,0,0,99.90,-0.805,-0.192,-0.466,1.344,7.906,-0.594,3.93,65.83,-4.63
7876025,0,0,0,99.90,-0.807,-0.192,-0.468,1.281,7.812,-0.562,4.00,65.65,-4.45
7886205,0,0,0,99.90,-0.808,-0.192,-0.469,1.250,7.594,-0.531,4.03,65.57,-4.37
7896122,0,0,0,99.90,-0.809,-0.191,-0.469,1.219,7.406,-0.531,4.03,65.52,-4.55
7906130,0,0,0,99.90,-0.809,-0.191,-0.469,1.188,7.250,-0.594,4.06,65.44,-4.47
7916160,0,0,0,99.90,-0.808,-0.191,-0.468,1.125,7.062,-0.688,4.03,65.68,-4.29
7926220,0,0,0,99.90,-0.808,-0.191,-0.468,1.031,7.062,-0.688,3.98,65.73,-4.50
7936162,0,0,0,99.90,-0.808,-0.191,-0.468,0.906,7.031,-0.688,3.93,65.75,-4.42
7946214,0,0,0,99.90,-0.809,-0.191,-0.467,0.844,6.938,-0.688,4.06,65.78,-4.16
7956215,0,0,0,99.90,-0.810,-0.191,-0.467,0.812,6.812,-0.656,4.11,65.73,-4.29
7966214,0,0,0,99.90,-0.809,-0.191,-0.467,0.875,6.656,-0.594,3.95,65.83,-4.68
7976127,0,0,0,99.90,-0.808,-0.192,-0.467,0.938,6.531,-0.500,3.95,65.86,-4.76
7986275,0,0,0,99.90,-0.806,-0.193,-0.466,1.000,6.500,-0.406,3.98,65.73,-4.60
7996133,0,0,0,99.90,-0.803,-0.194,-0.466,1.062,6.500,-0.344,3.95,65.75,-4.52
8006226,0,0,0,99.90,-0.801,-0.195,-0.464,1.156,6.719,-0.406,3.90,65.73,-4.58
8016156,0,0,0,99.90,-0.802,-0.195,-0.464,1.250,6.906,-0.438,3.82,65.70,-4.58
8026281,0,0,0,99.90,-0.804,-0.194,-0.465,1.344,7.094,-0.469,3.82,65.70,-4.65
8036150,0,0,0,99.90,-0.806,-0.194,-0.466,1.438,7.219,-0.469,3.90,65.68,-4.58
8046238,0,0,0,99.90,-0.808,-0.193,-0.468,1.500,7.281,-0.406,3.90,65.68,-4.16
8056156,0,0,0,99.90,-0.809,-0.192,-0.469,1.562,7.250,-0.375,3.82,65.75,-4.19
8066241,0,0,0,99.90,-0.809,-0.192,-0.469,1.531,7.188,-0.312,3.93,65.70,-4.32
8076281,0,0,0,99.90,-0.808,-0.193,-0.468,1.531,7.094,-0.250,4.11,65.57,-4.39
8086181,0,0,0,99.90,-0.807,-0.193,-0.467,1.469,7.094,-0.250,4.24,65.60,-4.32
8096166,0,0,0,99.90,-0.803,-0.192,-0.467,1.406,7.312,-0.344,4.08,65.65,-4.11
8106262,0,0,0,99.90,-0.802,-0.191,-0.467,1.375,7.531,-0.438,3.98,65.70,-4.24
8116294,0,0,0,99.90,-0.802,-0.190,-0.467,1.344,7.812,-0.562,4.06,65.73,-4.39
8126297,0,0,0,99.90,-0.802,-0.190,-0.467,1.312,8.031,-0.625,4.00,65.70,-4.39
8136153,0,0,0,99.90,-0.803,-0.191,-0.466,1.281,8.219,-0.625,3.93,65.70,-4.39
8146090,0,0,0,99.90,-0.804,-0.192,-0.466,1.250,8.312,-0.594,4.06,65.73,-4.34
8156127,0,0,0,99.90,-0.805,-0.193,-0.466,1.219,8.312,-0.562,4.03,65.70,-4.42
8166182,0,0,0,99.90,-0.807,-0.194,-0.466,1.188,8.219,-0.500,3.98,65.65,-4.37
8176138,0,0,0,99.90,-0.808,-0.194,-0.467,1.219,8.031,-0.469,4.00,65.60,-4.45
8186115,0,0,0,99.90,-0.809,-0.195,-0.467,1.219,7.812,-0.469,4.11,65.60,-4.50
8196140,0,0,0,99.90,-0.809,-0.195,-0.467,1.375,7.469,-0.469,4.08,65.60,-4.39
8206116,0,0,0,99.90,-0.807,-0.195,-0.467,1.500,7.406,-0.469,4.00,65.49,-4.50
8216093,0,0,0,99.90,-0.804,-0.194,-0.467,1.594,7.500,-0.438,4.00,65.57,-4.60
8226208,0,0,0,99.90,-0.802,-0.194,-0.467,1.625,7.688,-0.438,3.87,65.62,-4.58
8236169,0,0,0,99.90,-0.800,-0.194,-0.468,1.625,7.906,-0.438,3.85,65.55,-4.47
8246221,0,0,0,99.90,-0.800,-0.194,-0.468,1.562,8.125,-0.438,3.98,65.47,-4.29
8256177,0,0,0,99.90,-0.802,-0.193,-0.468,1.594,8.281,-0.469,4.00,65.65,-4.39
8266140,0,0,0,99.90,-0.804,-0.193,-0.469,1.656,8.312,-0.469,4.06,65.55,-4.58
8276189,0,0,0,99.90,-0.805,-0.192,-0.470,1.688,8.250,-0.469,3.93,65.55,-4.65
8286217,0,0,0,99.90,-0.805,-0.193,-0.471,1.594,7.969,-0.688,3.95,65.78,-4.63
8296226,0,0,0,99.90,-0.804,-0.194,-0.471,1.469,7.844,-0.812,4.06,65.65,-4.60
8306239,0,0,0,99.90,-0.805,-0.195,-0.471,1.344,7.750,-0.906,4.03,65.52,-4.60
8316141,0,0,0,99.90,-0.805,-0.196,-0.472,1.250,7.656,-0.906,3.95,65.52,-4.68
8326165,0,0,0,99.90,-0.805,-0.196,-0.473,1.156,7.469,-0.875,4.00,65.70,-4.58
8336149,0,0,0,99.90,-0.806,-0.195,-0.473,1.094,7.219,-0.844,4.06,65.68,-4.55
8346174,0,0,0,99.90,-0.807,-0.195,-0.471,1.031,6.906,-0.781,3.90,65.55,-4.42
8356157,0,0,0,99.90,-0.807,-0.194,-0.469,1.031,6.625,-0.688,3.98,65.52,-4.39
8366282,0,0,0,99.90,-0.807,-0.195,-0.468,1.062,6.375,-0.594,4.06,65.44,-4.71
8376233,0,0,0,99.90,-0.804,-0.196,-0.468,1.094,6.094,-0.500,3.82,65.49,-4.86
8386187,0,0,0,99.90,-0.802,-0.196,-0.469,1.094,6.094,-0.500,3.77,65.49,-4.78
8396167,0,0,0,99.90,-0.801,-0.196,-0.468,1.188,6.156,-0.500,3.72,65.57,-4.52
8406263,0,0,0,99.90,-0.801,-0.196,-0.467,1.281,6.312,-0.500,3.93,65.60,-4.39
8416244,0,0,0,99.90,-0.801,-0.195,-0.466,1.438,6.531,-0.438,4.00,65.52,-4.65
8426297,0,0,0,99.90,-0.802,-0.194,-0.466,1.562,6.750,-0.375,4.00,65.49,-4.42
8436258,0,0,0,99.90,-0.802,-0.193,-0.467,1.656,7.000,-0.344,4.03,65.57,-4.34
8446217,0,0,0,99.90,-0.803,-0.193,-0.469,1.750,7.188,-0.312,4.03,65.52,-4.52
8456294,0,0,0,99.90,-0.804,-0.193,-0.470,1.781,7.344,-0.281,3.98,65.42,-4.42
8466239,0,0,0,99.90,-0.805,-0.194,-0.470,1.750,7.344,-0.219,3.95,65.47,-4.65
8476212,0,0,0,99.90,-0.806,-0.194,-0.469,1.750,7.219,-0.125,3.90,65.60,-4.60
8486236,0,0,0,99.90,-0.807,-0.193,-0.469,1.781,7.094,-0.062,4.00,65.86,-4.52
8496338,0,0,0,99.90,-0.806,-0.192,-0.469,1.812,6.906,-0.062,3.95,65.73,-4.63
8506357,0,0,0,99.90,-0.806,-0.192,-0.469,1.781,6.750,-0.094,3.95,65.52,-4.76
8516224,0,0,0,99.90,-0.805,-0.192,-0.470,1.750,6.625,-0.188,4.03,65.57,-4.58
8526346,0,0,0,99.90,-0.805,-0.192,-0.470,1.750,6.531,-0.250,4.08,65.62,-4.37
8536240,0,0,0,99.90,-0.804,-0.192,-0.470,1.719,6.500,-0.281,3.98,65.65,-4.42
8546258,0,0,0,99.90,-0.802,-0.193,-0.470,1.656,6.531,-0.281,3.87,65.60,-4.52
8556240,0,0,0,99.90,-0.801,-0.193,-0.470,1.562,6.625,-0.281,4.08,65.60,-4.89
8566333,0,0,0,99.90,-0.800,-0.193,-0.470,1.438,6.906,-0.281,4.21,65.57,-4.91
8576316,0,0,0,99.90,-0.800,-0.193,-0.470,1.406,7.000,-0.312,4.16,65.47,-4.81
8586360,0,0,0,99.90,-0.800,-0.193,-0.471,1.406,7.125,-0.375,4.13,65.49,-4.71
8596258,0,0,0,99.90,-0.800,-0.194,-0.472,1.375,7.250,-0.438,4.08,65.52,-4.73
8606375,0,0,0,99.90,-0.800,-0.195,-0.472,1.312,7.406,-0.500,3.98,65.47,-4.58
8616333,0,0,0,99.90,-0.801,-0.196,-0.471,1.219,7.562,-0.562,3.93,65.39,-4.55
8626387,0,0,0,99.90,-0.801,-0.197,-0.472,1.125,7.625,-0.656,3.85,65.42,-4.34
8636284,0,0,0,99.90,-0.801,-0.198,-0.472,1.094,7.625,-0.750,3.90,65.44,-4.55
8646307,0,0,0,99.90,-0.801,-0.198,-0.472,1.094,7.531,-0.812,4.03,65.52,-4.47
8656381,0,0,0,99.90,-0.800,-0.197,-0.471,1.188,7.375,-0.812,4.06,65.60,-4.50
8666399,0,0,0,99.90,-0.800,-0.195,-0.471,1.188,7.375,-0.781,3.90,65.55,-4.73
8676360,0,0,0,99.90,-0.800,-0.194,-0.471,1.188,7.438,-0.750,3.98,65.47,-4.84
8686386,0,0,0,99.90,-0.800,-0.194,-0.471,1.188,7.531,-0.781,4.08,65.57,-4.78
8696370,0,0,0,99.90,-0.801,-0.194,-0.470,1.156,7.594,-0.812,4.03,65.62,-4.60
8706420,0,0,0,99.90,-0.802,-0.195,-0.470,1.125,7.625,-0.844,4.13,65.62,-4.47
8716312,0,0,0,99.90,-0.803,-0.195,-0.471,1.156,7.625,-0.844,4.03,65.65,-4.52
8726342,0,0,0,99.90,-0.805,-0.195,-0.471,1.156,7.625,-0.875,3.95,65.62,-4.52
8736328,0,0,0,99.90,-0.805,-0.195,-0.472,1.156,7.625,-0.875,4.08,65.49,-4.37
8746354,0,0,0,99.90,-0.805,-0.195,-0.472,1.188,7.438,-0.812,4.13,65.55,-4.52
8756423,0,0,0,99.90,-0.804,-0.195,-0.471,1.250,7.281,-0.750,3.95,65.57,-4.86
8766370,0,0,0,99.90,-0.803,-0.195,-0.471,1.281,7.125,-0.719,3.85,65.55,-4.86
8776347,0,0,0,99.90,-0.802,-0.196,-0.471,1.281,7.062,-0.656,3.87,65.49,-4.76
8786434,0,0,0,99.90,-0.801,-0.196,-0.472,1.188,7.031,-0.656,4.03,65.39,-4.65
8796421,0,0,0,99.90,-0.801,-0.196,-0.472,1.094,7.062,-0.656,3.98,65.55,-4.58
8806444,0,0,0,99.90,-0.801,-0.196,-0.471,1.000,7.094,-0.656,3.95,65.57,-4.91
8816361,0,0,0,99.90,-0.802,-0.196,-0.471,0.969,7.094,-0.656,4.00,65.55,-4.76
8826485,0,0,0,99.90,-0.802,-0.196,-0.470,1.000,7.125,-0.656,4.06,65.47,-4.50
8836507,0,0,0,99.90,-0.802,-0.196,-0.470,1.125,7.125,-0.594,4.08,65.29,-4.65
8846523,0,0,0,99.90,-0.802,-0.197,-0.471,1.188,7.094,-0.500,4.13,65.26,-4.60
8856589,0,0,0,99.90,-0.803,-0.197,-0.471,1.250,7.031,-0.406,4.08,65.36,-4.65
8866551,0,0,0,99.90,-0.805,-0.196,-0.471,1.281,6.938,-0.312,3.90,65.36,-4.84
8876631,0,0,0,99.90,-0.805,-0.196,-0.471,1.281,6.812,-0.250,3.82,65.42,-4.71
8886591,0,0,0,99.90,-0.805,-0.195,-0.471,1.281,6.719,-0.219,4.00,65.47,-4.78
8896547,0,0,0,99.90,-0.804,-0.195,-0.471,1.281,6.688,-0.188,4.06,65.47,-4.81
8906646,0,0,0,99.90,-0.804,-0.196,-0.471,1.344,6.719,-0.156,4.03,65.47,-4.68
8916550,0,0,0,99.90,-0.803,-0.196,-0.471,1.406,6.781,-0.156,3.98,65.42,-5.02
8926569,0,0,0,99.90,-0.802,-0.197,-0.471,1.438,6.844,-0.156,3.95,65.36,-5.23
8936624,0,0,0,99.90,-0.799,-0.197,-0.471,1.438,6.938,-0.188,4.00,65.36,-5.10
8946634,0,0,0,99.90,-0.799,-0.197,-0.470,1.438,6.969,-0.219,4.03,65.42,-4.68
8956608,0,0,0,99.90,-0.800,-0.196,-0.469,1.406,7.000,-0.281,3.95,65.52,-4.55
8966596,0,0,0,99.90,-0.802,-0.196,-0.469,1.438,7.031,-0.312,4.08,65.70,-4.63
8976681,0,0,0,99.90,-0.803,-0.196,-0.470,1.500,6.969,-0.281,4.03,65.49,-4.65
8986636,0,0,0,99.90,-0.804,-0.197,-0.470,1.531,6.844,-0.188,3.85,65.29,-4.71
8996689,0,0,0,99.90,-0.803,-0.197,-0.471,1.594,6.688,-0.125,4.08,65.36,-4.89
9006658,0,0,0,99.90,-0.803,-0.197,-0.472,1.594,6.594,-0.094,4.06,65.47,-4.99
9016606,0,0,0,99.90,-0.802,-0.197,-0.472,1.625,6.531,-0.094,4.00,65.57,-4.89
9026637,0,0,0,99.90,-0.800,-0.197,-0.470,1.688,6.562,-0.219,3.95,65.55,-4.71
9036662,0,0,0,99.90,-0.801,-0.197,-0.470,1.750,6.594,-0.281,3.85,65.44,-4.58
9046627,0,0,0,99.90,-0.801,-0.197,-0.470,1.812,6.656,-0.344,3.90,65.49,-4.60
9056662,0,0,0,99.90,-0.802,-0.196,-0.471,1.812,6.688,-0.312,3.95,65.62,-4.45
9066704,0,0,0,99.90,-0.802,-0.195,-0.472,1.812,6.688,-0.281,3.90,65.60,-4.37
9076725,0,0,0,99.90,-0.802,-0.194,-0.473,1.750,6.688,-0.219,3.85,65.55,-4.45
9086679,0,0,0,99.90,-0.802,-0.194,-0.472,1.688,6.781,-0.250,3.90,65.44,-4.52
9096695,0,0,0,99.90,-0.801,-0.195,-0.471,1.656,6.969,-0.312,3.87,65.44,-4.63
9106735,0,0,0,99.90,-0.799,-0.196,-0.470,1.656,7.188,-0.344,4.00,65.57,-4.60
9116685,0,0,0,99.90,-0.799,-0.198,-0.473,1.531,7.375,-0.344,3.98,65.55,-4.68
9126658,0,0,0,99.90,-0.802,-0.198,-0.475,1.438,7.188,-0.250,3.69,65.44,-4.73
9136630,0,0,0,99.90,-0.806,-0.198,-0.476,1.406,6.844,-0.125,3.67,65.44,-4.73
9146529,0,0,0,99.90,-0.809,-0.197,-0.476,1.500,6.469,0.000,3.87,65.55,-4.52
9156543,0,0,0,99.90,-0.808,-0.197,-0.475,1.625,6.156,0.062,3.87,65.52,-4.68
9166643,0,0,0,99.90,-0.805,-0.198,-0.474,1.812,6.031,0.062,3.98,65.52,-4.91
9176639,0,0,0,99.90,-0.800,-0.199,-0.471,1.938,6.062,-0.031,4.08,65.57,-4.50
9186627,0,0,0,99.90,-0.796,-0.200,-0.469,2.062,6.281,-0.125,4.03,65.62,-4.45
9196592,0,0,0,99.90,-0.794,-0.199,-0.468,2.156,6.625,-0.219,4.00,65.49,-4.60
9206534,0,0,0,99.90,-0.794,-0.198,-0.468,2.188,7.062,-0.312,4.06,65.47,-4.76
9216624,0,0,0,99.90,-0.798,-0.194,-0.469,2.219,8.000,-0.406,3.87,65.47,-4.63
9226552,0,0,0,99.90,-0.800,-0.194,-0.471,2.219,8.312,-0.375,3.90,65.34,-4.39
9236613,0,0,0,99.90,-0.801,-0.195,-0.472,2.250,8.438,-0.312,3.98,65.29,-4.58
9246662,0,0,0,99.90,-0.802,-0.197,-0.474,2.312,8.375,-0.219,4.16,65.26,-4.81
9256627,0,0,0,99.90,-0.803,-0.198,-0.475,2.344,8.156,-0.156,4.16,65.42,-4.63
9266582,0,0,0,99.90,-0.803,-0.199,-0.476,2.375,7.875,-0.062,3.98,65.47,-4.65
9276679,0,0,0,99.90,-0.803,-0.200,-0.476,2.344,7.625,0.000,3.98,65.52,-4.78
9286628,0,0,0,99.90,-0.803,-0.200,-0.475,2.312,7.406,0.094,3.98,65.55,-4.78
9296667,0,0,0,99.90,-0.803,-0.200,-0.476,2.250,7.250,0.156,3.93,65.44,-4.63
9306604,0,0,0,99.90,-0.804,-0.199,-0.476,2.156,6.875,0.250,3.90,65.39,-4.58
9316582,0,0,0,99.90,-0.804,-0.198,-0.476,2.125,6.719,0.219,4.00,65.47,-4.52
9326596,0,0,0,99.90,-0.802,-0.196,-0.475,2.094,6.562,0.188,4.06,65.44,-4.60
9336679,0,0,0,99.90,-0.799,-0.195,-0.474,2.062,6.531,0.156,3.98,65.49,-4.68
9346670,0,0,0,99.90,-0.797,-0.195,-0.473,2.062,6.594,0.125,3.77,65.55,-4.50
9356670,0,0,0,99.90,-0.795,-0.196,-0.472,2.062,6.781,0.094,3.80,65.47,-4.34
9366697,0,0,0,99.90,-0.795,-0.197,-0.471,2.062,6.969,0.031,3.95,65.44,-4.55
9376693,0,0,0,99.90,-0.795,-0.197,-0.470,2.094,7.156,0.000,4.00,65.49,-4.86
9386659,0,0,0,99.90,-0.797,-0.196,-0.471,2.125,7.312,-0.062,3.95,65.42,-4.84
9396731,0,0,0,99.90,-0.800,-0.194,-0.473,2.125,7.406,-0.188,3.90,65.31,-4.60
9406729,0,0,0,99.90,-0.802,-0.194,-0.474,2.094,7.281,-0.250,4.11,65.42,-4.55
9416634,0,0,0,99.90,-0.803,-0.195,-0.474,2.094,7.125,-0.250,4.13,65.60,-4.63
9426627,0,0,0,99.90,-0.803,-0.196,-0.474,2.125,7.031,-0.250,4.08,65.39,-4.65
9436632,0,0,0,99.90,-0.802,-0.197,-0.474,2.125,6.969,-0.156,4.06,65.23,-4.84
9446627,0,0,0,99.90,-0.801,-0.198,-0.474,2.094,7.000,-0.094,4.08,65.39,-4.78
9456655,0,0,0,99.90,-0.801,-0.198,-0.475,2.062,7.031,-0.062,4.19,65.55,-4.39
9466756,0,0,0,99.90,-0.801,-0.197,-0.475,1.969,6.969,-0.062,4.16,65.52,-4.50
9476756,0,0,0,99.90,-0.801,-0.196,-0.476,1.844,6.844,-0.094,3.98,65.52,-4.58
9486655,0,0,0,99.90,-0.802,-0.196,-0.477,1.562,6.250,0.000,4.00,65.57,-4.81
9496724,0,0,0,99.90,-0.804,-0.195,-0.477,1.469,5.844,0.156,4.11,65.57,-4.91
9506670,0,0,0,99.90,-0.803,-0.196,-0.476,1.438,5.531,0.312,4.11,65.52,-4.73
9516750,0,0,0,99.90,-0.801,-0.197,-0.474,1.438,5.375,0.406,4.11,65.39,-4.58
9526731,0,0,0,99.90,-0.799,-0.197,-0.473,1.469,5.375,0.375,4.03,65.60,-4.50
9536673,0,0,0,99.90,-0.799,-0.197,-0.473,1.500,5.406,0.250,4.06,65.57,-4.71
9546679,0,0,0,99.90,-0.799,-0.196,-0.474,1.500,5.375,0.156,4.13,65.42,-4.65
9556682,0,0,0,99.90,-0.800,-0.195,-0.473,1.469,5.250,0.062,3.95,65.49,-4.52
9566804,0,0,0,99.90,-0.802,-0.194,-0.473,1.469,5.094,0.000,4.00,65.65,-4.42
9576722,0,0,0,99.90,-0.803,-0.193,-0.472,1.500,4.969,0.000,4.08,65.62,-4.29
9586712,0,0,0,99.90,-0.797,-0.191,-0.468,1.531,5.469,-0.125,4.16,65.57,-4.21
9596695,0,0,0,99.90,-0.793,-0.192,-0.466,1.406,6.219,-0.344,4.24,65.62,-4.32
9606700,0,0,0,99.90,-0.792,-0.193,-0.464,1.250,7.062,-0.625,4.11,65.44,-4.52
9616770,0,0,0,99.90,-0.796,-0.196,-0.465,1.094,7.688,-0.844,4.03,65.31,-4.86
9626773,0,0,0,99.90,-0.802,-0.198,-0.467,1.031,7.906,-0.875,3.90,65.44,-4.76
9636708,0,0,0,99.90,-0.807,-0.199,-0.470,1.125,7.688,-0.750,3.80,65.52,-4.58
9646784,0,0,0,99.90,-0.809,-0.198,-0.473,1.219,7.250,-0.500,3.87,65.39,-4.55
9656730,0,0,0,99.90,-0.808,-0.197,-0.474,1.281,6.781,-0.312,3.85,65.42,-4.68
9666826,0,0,0,99.90,-0.806,-0.197,-0.474,1.281,6.438,-0.281,3.82,65.57,-4.86
9676777,0,0,0,99.90,-0.802,-0.198,-0.472,1.219,6.188,-0.438,3.93,65.62,-4.68
9686827,0,0,0,99.90,-0.801,-0.198,-0.472,1.250,6.250,-0.500,4.03,65.62,-4.47
9696733,0,0,0,99.90,-0.801,-0.199,-0.471,1.281,6.312,-0.406,4.03,65.73,-4.52
9706808,0,0,0,99.90,-0.803,-0.198,-0.471,1.344,6.281,-0.250,3.95,65.62,-4.32
9716747,0,0,0,99.90,-0.805,-0.197,-0.471,1.375,6.188,-0.094,3.95,65.52,-4.32
9726835,0,0,0,99.90,-0.807,-0.195,-0.471,1.375,6.000,0.062,4.00,65.47,-4.71
9736852,0,0,0,99.90,-0.806,-0.194,-0.470,1.375,5.844,0.125,4.00,65.68,-5.10
9746747,0,0,0,99.90,-0.804,-0.194,-0.469,1.406,5.812,0.094,3.95,65.83,-4.91
9756849,0,0,0,99.90,-0.800,-0.195,-0.469,1.438,5.969,0.000,4.03,65.70,-4.58
9766822,0,0,0,99.90,-0.796,-0.197,-0.469,1.500,6.594,-0.188,3.98,65.60,-4.60
9776867,0,0,0,99.90,-0.796,-0.198,-0.469,1.469,6.906,-0.250,4.08,65.62,-4.65
9786760,0,0,0,99.90,-0.798,-0.198,-0.469,1.469,7.094,-0.281,4.16,65.73,-4.71
9796762,0,0,0,99.90,-0.801,-0.197,-0.469,1.500,7.156,-0.312,3.98,65.68,-4.71
9806870,0,0,0,99.90,-0.803,-0.197,-0.469,1.562,7.125,-0.312,3.98,65.55,-4.76
9816862,0,0,0,99.90,-0.804,-0.197,-0.470,1.656,7.062,-0.281,4.06,65.57,-4.71
9826840,0,0,0,99.90,-0.805,-0.197,-0.471,1.750,6.969,-0.188,3.95,65.60,-4.60
9836862,0,0,0,99.90,-0.805,-0.198,-0.472,1.812,6.875,-0.125,3.98,65.60,-4.55
9846852,0,0,0,99.90,-0.804,-0.197,-0.472,1.844,6.781,-0.125,4.08,65.52,-4.37
9856777,0,0,0,99.90,-0.803,-0.197,-0.471,1.906,6.719,-0.094,4.00,65.57,-4.29
9866807,0,0,0,99.90,-0.802,-0.196,-0.470,1.938,6.688,-0.031,3.98,65.62,-4.47
9876884,0,0,0,99.90,-0.801,-0.196,-0.470,1.875,6.688,0.000,4.06,65.65,-4.78
9886874,0,0,0,99.90,-0.801,-0.197,-0.470,1.812,6.719,0.031,4.03,65.60,-4.63
9896893,0,0,0,99.90,-0.800,-0.197,-0.469,1.781,6.781,0.031,4.06,65.47,-4.47
9906791,0,0,0,99.90,-0.801,-0.198,-0.469,1.844,6.875,0.062,4.06,65.49,-4.42
9916914,0,0,0,99.90,-0.801,-0.198,-0.469,1.906,6.969,0.062,3.80,65.57,-4.42
9926911,0,0,0,99.90,-0.802,-0.198,-0.470,2.000,7.031,0.062,3.85,65.57,-4.68
9936920,0,0,0,99.90,-0.803,-0.198,-0.470,2.062,7.000,0.031,4.03,65.60,-4.71
9946897,0,0,0,99.90,-0.804,-0.198,-0.470,2.094,6.938,0.000,3.98,65.57,-4.73
9956903,0,0,0,99.90,-0.804,-0.197,-0.470,2.094,6.750,-0.031,3.95,65.60,-4.81
9966856,0,0,0,99.90,-0.803,-0.197,-0.471,2.062,6.719,0.000,3.95,65.49,-4.63
9976909,0,0,0,99.90,-0.801,-0.196,-0.471,2.000,6.812,0.062,3.98,65.60,-4.52
9986934,0,0,0,99.90,-0.800,-0.197,-0.470,1.938,6.938,0.125,4.13,65.75,-4.58
9996894,0,0,0,99.90,-0.800,-0.197,-0.470,1.906,7.062,0.156,4.06,65.62,-4.68
10006901,0,0,0,99.90,-0.800,-0.198,-0.470,1.875,7.094,0.094,3.98,65.68,-4.73
10016870,0,0,0,99.90,-0.802,-0.197,-0.470,1.938,7.031,-0.031,4.06,65.83,-4.86
10026944,0,0,0,99.90,-0.803,-0.197,-0.471,2.000,6.844,-0.188,4.06,65.75,-4.65
10036927,0,0,0,99.90,-0.804,-0.196,-0.470,2.062,6.719,-0.281,4.08,65.60,-4.60
10046927,0,0,0,99.90,-0.806,-0.195,-0.468,2.156,6.625,-0.250,4.03,65.62,-4.47
10056861,0,0,0,99.90,-0.806,-0.196,-0.468,2.156,6.594,-0.156,3.90,65.62,-4.45
10066879,0,0,0,99.90,-0.807,-0.197,-0.469,2.125,6.531,-0.062,4.08,65.60,-4.58
10076985,0,0,0,99.90,-0.807,-0.198,-0.469,2.094,6.406,0.031,4.13,65.57,-4.78
10086878,0,0,0,99.90,-0.806,-0.198,-0.469,2.062,6.344,0.125,3.90,65.65,-4.60
10096946,0,0,0,99.90,-0.804,-0.196,-0.468,2.125,6.344,0.219,3.90,65.65,-4.37
10106883,0,0,0,99.90,-0.802,-0.194,-0.468,2.188,6.438,0.312,3.95,65.55,-4.58
10116983,0,0,0,99.90,-0.800,-0.194,-0.468,2.219,6.562,0.344,3.93,65.49,-4.58
10126949,0,0,0,99.90,-0.799,-0.194,-0.469,2.219,6.719,0.281,3.93,65.49,-4.58
10136898,0,0,0,99.90,-0.799,-0.196,-0.469,2.125,7.031,0.031,3.98,65.55,-4.63
10146922,0,0,0,99.90,-0.803,-0.198,-0.470,2.125,7.125,-0.031,4.08,65.55,-4.39
10156903,0,0,0,99.90,-0.804,-0.198,-0.470,2.125,7.188,0.031,4.16,65.57,-4.47
10166995,0,0,0,99.90,-0.805,-0.198,-0.471,2.156,7.125,0.125,4.08,65.70,-4.63
10176918,0,0,0,99.90,-0.806,-0.196,-0.471,2.125,6.969,0.281,3.93,65.68,-4.52
10186922,0,0,0,99.90,-0.805,-0.195,-0.472,2.062,6.781,0.344,3.98,65.60,-4.37
10196991,0,0,0,99.90,-0.805,-0.194,-0.471,1.969,6.562,0.344,4.08,65.62,-4.55
10206983,0,0,0,99.90,-0.804,-0.194,-0.471,1.844,6.406,0.219,4.11,65.62,-4.60
10216925,0,0,0,99.90,-0.804,-0.194,-0.470,1.719,6.281,0.094,4.06,65.62,-4.52
10226960,0,0,0,99.90,-0.804,-0.194,-0.469,1.625,6.250,0.031,4.11,65.62,-4.39
10236934,0,0,0,99.90,-0.802,-0.196,-0.469,1.594,6.375,0.062,4.06,65.55,-4.50
10247048,0,0,0,99.90,-0.801,-0.196,-0.468,1.594,6.438,0.094,3.90,65.62,-4.50
10257026,0,0,0,99.90,-0.800,-0.196,-0.468,1.594,6.531,0.094,3.90,65.68,-4.42
10266946,0,0,0,99.90,-0.800,-0.196,-0.468,1.594,6.625,0.031,3.98,65.70,-4.52
10276954,0,0,0,99.90,-0.800,-0.196,-0.468,1.500,6.719,-0.062,3.95,65.62,-4.63
10287064,0,0,0,99.90,-0.801,-0.196,-0.469,1.438,6.781,-0.156,3.85,65.57,-4.60
10297020,0,0,0,99.90,-0.802,-0.196,-0.469,1.406,6.812,-0.250,3.90,65.55,-4.52
10307026,0,0,0,99.90,-0.803,-0.196,-0.469,1.438,6.781,-0.281,4.00,65.49,-4.60
10317023,0,0,0,99.90,-0.804,-0.196,-0.470,1.500,6.719,-0.312,3.93,65.49,-4.60
10327051,0,0,0,99.90,-0.805,-0.196,-0.471,1.406,6.531,-0.281,4.08,65.57,-4.55
10336971,0,0,0,99.90,-0.805,-0.196,-0.471,1.281,6.406,-0.250,4.00,65.60,-4.32
10346965,0,0,0,99.90,-0.805,-0.195,-0.470,1.125,6.281,-0.156,3.82,65.73,-4.78
10356973,0,0,0,99.90,-0.804,-0.194,-0.469,1.062,6.219,-0.094,3.93,65.78,-4.78
10367063,0,0,0,99.90,-0.802,-0.194,-0.468,1.062,6.219,-0.094,3.98,65.70,-4.47
10377068,0,0,0,99.90,-0.801,-0.195,-0.467,1.125,6.281,-0.125,3.82,65.60,-4.55
10386980,0,0,0,99.90,-0.801,-0.195,-0.466,1.219,6.406,-0.219,3.85,65.55,-4.58
10396991,0,0,0,99.90,-0.801,-0.195,-0.466,1.250,6.594,-0.344,3.98,65.68,-4.55
10406990,0,0,0,99.90,-0.803,-0.195,-0.466,1.219,6.750,-0.438,3.98,65.78,-4.55
10417098,0,0,0,99.90,-0.806,-0.195,-0.467,1.156,6.844,-0.438,4.00,65.60,-4.39
10427089,0,0,0,99.90,-0.807,-0.195,-0.468,1.094,6.812,-0.375,4.06,65.55,-4.42
10437076,0,0,0,99.90,-0.807,-0.195,-0.468,1.000,6.719,-0.281,3.93,65.68,-4.47
10447137,0,0,0,99.90,-0.806,-0.195,-0.468,0.938,6.594,-0.250,3.87,65.68,-4.34
10457251,0,0,0,99.90,-0.805,-0.196,-0.468,0.906,6.438,-0.188,3.95,65.60,-4.50
10467276,0,0,0,99.90,-0.804,-0.196,-0.468,0.906,6.312,-0.156,3.90,65.60,-4.71
10477253,0,0,0,99.90,-0.803,-0.197,-0.468,0.969,6.250,-0.125,4.08,65.70,-4.76
10487173,0,0,0,99.90,-0.803,-0.198,-0.468,1.094,6.219,-0.094,4.21,65.70,-4.73
10497194,0,0,0,99.90,-0.803,-0.198,-0.468,1.219,6.281,-0.094,4.06,65.62,-4.45
10507187,0,0,0,99.90,-0.803,-0.198,-0.467,1.281,6.344,-0.188,4.00,65.60,-4.42
10517282,0,0,0,99.90,-0.802,-0.198,-0.467,1.250,6.531,-0.219,3.98,65.78,-4.55
10527217,0,0,0,99.90,-0.802,-0.197,-0.467,1.219,6.594,-0.281,3.80,65.75,-4.50
10537237,0,0,0,99.90,-0.802,-0.197,-0.467,1.250,6.688,-0.281,3.95,65.57,-4.55
10547311,0,0,0,99.90,-0.803,-0.197,-0.467,1.312,6.688,-0.281,3.95,65.65,-4.58
10557269,0,0,0,99.90,-0.804,-0.197,-0.467,1.344,6.656,-0.250,3.90,65.62,-4.81
10567195,0,0,0,99.90,-0.805,-0.196,-0.468,1.344,6.594,-0.188,3.93,65.62,-4.86
10577324,0,0,0,99.90,-0.804,-0.196,-0.468,1.344,6.562,-0.156,4.00,65.60,-4.73
10587269,0,0,0,99.90,-0.804,-0.196,-0.468,1.344,6.531,-0.156,3.98,65.73,-4.55
10597203,0,0,0,99.90,-0.802,-0.196,-0.468,1.375,6.500,-0.156,4.06,65.65,-4.58
10607213,0,0,0,99.90,-0.803,-0.197,-0.466,1.469,6.406,-0.219,4.06,65.55,-4.68
10617232,0,0,0,99.90,-0.804,-0.197,-0.465,1.500,6.438,-0.250,4.00,65.83,-4.71
10627315,0,0,0,99.90,-0.806,-0.197,-0.465,1.594,6.500,-0.219,3.98,65.83,-4.68
10637272,0,0,0,99.90,-0.807,-0.196,-0.465,1.656,6.531,-0.188,3.90,65.81,-4.65
10647353,0,0,0,99.90,-0.807,-0.196,-0.466,1.750,6.531,-0.094,3.93,65.73,-4.73
10657269,0,0,0,99.90,-0.806,-0.195,-0.467,1.781,6.500,0.000,3.90,65.68,-4.47
10667297,0,0,0,99.90,-0.805,-0.196,-0.467,1.844,6.469,0.062,4.06,65.83,-4.47
10677379,0,0,0,99.90,-0.803,-0.197,-0.467,1.844,6.438,0.094,4.08,65.78,-4.63
10687331,0,0,0,99.90,-0.803,-0.197,-0.467,1.875,6.438,0.125,3.85,65.68,-4.55
10697329,0,0,0,99.90,-0.803,-0.197,-0.467,1.938,6.625,0.062,3.85,65.73,-4.55
10707386,0,0,0,99.90,-0.803,-0.196,-0.468,1.938,6.719,0.000,3.95,65.81,-4.63
10717367,0,0,0,99.90,-0.804,-0.196,-0.469,1.938,6.750,-0.094,4.06,65.78,-4.76
10727329,0,0,0,99.90,-0.806,-0.195,-0.469,1.938,6.688,-0.156,3.98,65.68,-4.76
10737347,0,0,0,99.90,-0.807,-0.195,-0.468,1.906,6.562,-0.125,3.87,65.68,-4.63
10747361,0,0,0,99.90,-0.808,-0.195,-0.467,1.875,6.375,-0.031,4.08,65.68,-4.55
10757303,0,0,0,99.90,-0.808,-0.195,-0.466,1.812,6.188,0.062,4.06,65.73,-4.58
10767408,0,0,0,99.90,-0.807,-0.195,-0.466,1.781,6.062,0.156,4.08,65.75,-4.65
10777356,0,0,0,99.90,-0.805,-0.195,-0.466,1.812,6.031,0.219,4.19,65.70,-4.84
10787243,0,0,0,99.90,-0.804,-0.194,-0.467,1.844,6.156,0.156,4.13,65.81,-4.71
10797201,0,0,0,99.90,-0.804,-0.194,-0.467,1.812,6.250,0.062,4.11,65.91,-4.24
10807294,0,0,0,99.90,-0.805,-0.194,-0.468,1.750,6.312,-0.031,4.11,65.83,-4.47
10817288,0,0,0,99.90,-0.807,-0.194,-0.467,1.656,6.312,-0.125,4.08,65.75,-4.47
10827255,0,0,0,99.90,-0.807,-0.194,-0.466,1.625,6.281,-0.156,3.93,65.78,-4.24
10837213,0,0,0,99.90,-0.808,-0.194,-0.465,1.625,6.250,-0.156,3.93,65.81,-4.45
10847205,0,0,0,99.90,-0.808,-0.193,-0.465,1.688,6.219,-0.125,3.95,65.73,-4.58
10857284,0,0,0,99.90,-0.807,-0.193,-0.465,1.719,6.219,-0.094,3.90,65.68,-4.50
10867250,0,0,0,99.90,-0.807,-0.193,-0.465,1.719,6.188,-0.094,3.93,65.65,-4.50
10877320,0,0,0,99.90,-0.808,-0.193,-0.465,1.719,6.062,-0.062,4.00,65.78,-4.45
10887346,0,0,0,99.90,-0.808,-0.193,-0.465,1.688,5.688,0.156,4.06,65.81,-4.34
10897299,0,0,0,99.90,-0.808,-0.194,-0.465,1.688,5.531,0.219,3.95,65.88,-4.29
10907299,0,0,0,99.90,-0.807,-0.194,-0.465,1.688,5.406,0.219,3.93,65.88,-4.37
10917315,0,0,0,99.90,-0.806,-0.194,-0.465,1.750,5.312,0.156,4.03,65.75,-4.26
10927302,0,0,0,99.90,-0.804,-0.195,-0.464,1.812,5.250,0.125,3.90,65.78,-4.03
10937319,0,0,0,99.90,-0.803,-0.195,-0.464,1.875,5.312,0.094,3.77,65.94,-4.11
10947339,0,0,0,99.90,-0.803,-0.195,-0.465,1.844,5.469,0.094,3.87,65.91,-4.16
10957255,0,0,0,99.90,-0.804,-0.194,-0.465,1.750,5.688,0.125,4.03,65.81,-4.37
10967320,0,0,0,99.90,-0.805,-0.193,-0.465,1.656,5.906,0.094,3.93,65.73,-4.39
10977305,0,0,0,99.90,-0.806,-0.192,-0.466,1.406,6.094,0.031,3.85,65.83,-4.55
10987261,0,0,0,99.90,-0.805,-0.192,-0.466,1.344,6.062,-0.062,3.87,65.86,-4.50
10997394,0,0,0,99.90,-0.805,-0.193,-0.465,1.344,6.031,-0.156,3.98,65.75,-4.37
11007278,0,0,0,99.90,-0.806,-0.195,-0.465,1.344,6.031,-0.219,4.03,65.70,-4.47
11017284,0,0,0,99.90,-0.807,-0.195,-0.465,1.344,6.000,-0.281,3.93,65.83,-4.34
11027281,0,0,0,99.90,-0.808,-0.195,-0.466,1.312,5.875,-0.281,3.95,66.07,-4.11
11037360,0,0,0,99.90,-0.810,-0.194,-0.466,1.312,5.719,-0.281,3.98,66.01,-4.45
11047360,0,0,0,99.90,-0.811,-0.193,-0.465,1.312,5.500,-0.312,3.95,65.86,-4.63
11057404,0,0,0,99.90,-0.811,-0.193,-0.464,1.375,5.250,-0.312,3.82,65.99,-4.42
11067399,0,0,0,99.90,-0.808,-0.194,-0.462,1.562,4.875,-0.250,3.82,66.07,-4.21
11077383,0,0,0,99.90,-0.806,-0.195,-0.461,1.656,4.875,-0.219,3.95,66.04,-4.32
11087324,0,0,0,99.90,-0.804,-0.195,-0.461,1.688,5.031,-0.188,3.80,66.01,-4.42
11097407,0,0,0,99.90,-0.803,-0.194,-0.460,1.625,5.312,-0.188,3.80,65.96,-4.34
11107399,0,0,0,99.90,-0.803,-0.193,-0.461,1.531,5.656,-0.156,3.80,65.94,-4.37
11117335,0,0,0,99.90,-0.805,-0.192,-0.461,1.469,6.000,-0.156,3.82,65.94,-4.37
11127328,0,0,0,99.90,-0.806,-0.192,-0.462,1.469,6.281,-0.156,3.80,65.88,-4.45
11137340,0,0,0,99.90,-0.808,-0.193,-0.463,1.500,6.469,-0.156,3.80,65.99,-4.37
11147331,0,0,0,99.90,-0.808,-0.194,-0.463,1.500,6.594,-0.156,3.87,66.07,-4.24
11157347,0,0,0,99.90,-0.809,-0.195,-0.463,1.500,6.688,-0.125,3.80,65.88,-4.37
11167400,0,0,0,99.90,-0.810,-0.194,-0.462,1.594,6.656,0.000,3.77,65.75,-4.45
11177390,0,0,0,99.90,-0.810,-0.194,-0.462,1.656,6.594,0.094,3.85,65.78,-4.32
11187376,0,0,0,99.90,-0.810,-0.193,-0.462,1.656,6.500,0.219,3.87,66.04,-4.24
11197365,0,0,0,99.90,-0.810,-0.193,-0.462,1.625,6.375,0.250,3.93,66.09,-4.47
11207360,0,0,0,99.90,-0.810,-0.192,-0.462,1.531,6.250,0.188,3.87,65.96,-4.42
11217463,0,0,0,99.90,-0.809,-0.191,-0.462,1.500,6.188,0.094,3.74,65.88,-4.21
11227444,0,0,0,99.90,-0.807,-0.192,-0.462,1.469,6.156,-0.031,3.87,65.99,-4.21
11237377,0,0,0,99.90,-0.805,-0.192,-0.462,1.438,6.219,-0.156,4.06,66.09,-4.24
11247434,0,0,0,99.90,-0.804,-0.193,-0.461,1.375,6.375,-0.250,4.00,65.96,-4.29
11257391,0,0,0,99.90,-0.806,-0.194,-0.460,1.406,6.781,-0.281,3.80,65.96,-4.24
11267374,0,0,0,99.90,-0.807,-0.193,-0.460,1.406,6.906,-0.281,3.82,66.07,-4.21
11277373,0,0,0,99.90,-0.808,-0.193,-0.460,1.438,6.938,-0.250,3.82,65.83,-4.47
11287443,0,0,0,99.90,-0.809,-0.193,-0.461,1.438,6.906,-0.250,3.80,65.83,-4.58
11297456,0,0,0,99.90,-0.809,-0.193,-0.461,1.469,6.938,-0.250,3.80,66.12,-4.19
11307453,0,0,0,99.90,-0.808,-0.194,-0.461,1.469,7.000,-0.281,3.85,66.07,-4.26
11317407,0,0,0,99.90,-0.808,-0.194,-0.461,1.500,7.094,-0.281,3.77,66.01,-4.34
11327394,0,0,0,99.90,-0.809,-0.194,-0.461,1.500,7.156,-0.281,3.64,65.96,-4.32
11337406,0,0,0,99.90,-0.810,-0.193,-0.461,1.531,7.156,-0.250,3.64,66.01,-4.52
11347400,0,0,0,99.90,-0.812,-0.192,-0.461,1.562,6.938,-0.062,3.90,66.07,-4.55
11357531,0,0,0,99.90,-0.812,-0.192,-0.461,1.531,6.750,0.000,3.98,66.04,-4.47
11367445,0,0,0,99.90,-0.811,-0.191,-0.461,1.469,6.625,0.000,3.80,66.07,-4.45
11377454,0,0,0,99.90,-0.810,-0.191,-0.460,1.438,6.625,0.000,3.85,65.96,-4.24
11387492,0,0,0,99.90,-0.808,-0.192,-0.459,1.469,6.719,0.000,3.82,65.88,-3.95
11397459,0,0,0,99.90,-0.807,-0.193,-0.459,1.500,6.906,-0.031,3.74,65.96,-3.95
11407447,0,0,0,99.90,-0.806,-0.193,-0.459,1.531,7.062,-0.062,3.80,65.96,-4.26
11417558,0,0,0,99.90,-0.807,-0.194,-0.460,1.531,7.125,-0.062,3.90,65.88,-4.55
11427555,0,0,0,99.90,-0.809,-0.194,-0.460,1.562,7.062,-0.031,3.90,65.91,-4.52
11437535,0,0,0,99.90,-0.843,-0.192,-0.460,1.625,6.781,0.000,3.74,65.91,-4.29
11447485,0,0,0,99.90,-0.813,-0.192,-0.460,1.656,6.656,-0.031,3.64,65.91,-4.11
11457551,0,0,0,99.90,-0.812,-0.191,-0.460,1.688,6.562,-0.062,3.80,65.88,-4.16
11467703,0,0,0,99.90,-0.810,-0.190,-0.459,1.656,6.500,-0.094,3.85,65.86,-4.26
11477596,0,0,0,99.90,-0.809,-0.190,-0.459,1.656,6.500,-0.062,3.85,65.94,-4.32
11487715,0,0,0,99.90,-0.808,-0.190,-0.459,1.656,6.500,-0.031,3.85,65.94,-4.34
11497596,0,0,0,99.90,-0.809,-0.190,-0.460,1.625,6.562,0.000,3.67,65.96,-4.16
11507725,0,0,0,99.90,-0.810,-0.190,-0.461,1.625,6.625,0.031,3.80,65.96,-4.19
11517663,0,0,0,99.90,-0.811,-0.191,-0.461,1.625,6.656,0.094,3.85,66.04,-4.32
11527631,0,0,0,99.90,-0.811,-0.191,-0.462,1.656,6.625,0.281,3.64,65.96,-4.32
11537644,0,0,0,99.90,-0.810,-0.193,-0.460,1.750,6.562,0.312,3.80,66.04,-4.16
11547780,0,0,0,99.90,-0.810,-0.194,-0.460,1.812,6.562,0.312,3.95,66.04,-4.11
11557715,0,0,0,99.90,-0.809,-0.194,-0.459,1.875,6.594,0.312,3.87,66.01,-4.37
11567733,0,0,0,99.90,-0.808,-0.193,-0.459,1.906,6.656,0.344,3.90,66.01,-4.52
11577632,0,0,0,99.90,-0.808,-0.193,-0.460,1.938,6.719,0.344,3.90,65.99,-4.52
11587724,0,0,0,99.90,-0.808,-0.192,-0.460,1.906,6.781,0.281,4.00,65.99,-4.21
11597627,0,0,0,99.90,-0.808,-0.191,-0.460,1.812,6.781,0.188,3.93,66.04,-4.21
11607739,0,0,0,99.90,-0.808,-0.191,-0.460,1.719,6.750,0.094,3.95,66.07,-4.24
11617673,0,0,0,99.90,-0.809,-0.191,-0.459,1.719,6.688,0.062,3.93,66.17,-4.50
11627773,0,0,0,99.90,-0.812,-0.191,-0.459,1.844,6.531,0.219,3.82,66.14,-4.58
11637637,0,0,0,99.90,-0.813,-0.191,-0.460,1.938,6.375,0.344,3.87,65.88,-4.37
11647723,0,0,0,99.90,-0.812,-0.191,-0.461,1.969,6.188,0.406,3.90,65.83,-4.37
11657726,0,0,0,99.90,-0.811,-0.191,-0.462,1.938,6.062,0.438,3.82,65.68,-4.47
11667778,0,0,0,99.90,-0.809,-0.191,-0.462,1.906,6.000,0.438,3.74,65.86,-4.50
11677765,0,0,0,99.90,-0.807,-0.192,-0.460,1.875,6.094,0.406,3.72,66.12,-4.34
11687702,0,0,0,99.90,-0.805,-0.192,-0.459,1.906,6.312,0.312,3.67,66.07,-4.42
11697781,0,0,0,99.90,-0.805,-0.193,-0.458,1.938,6.594,0.156,3.74,65.91,-4.34
11707779,0,0,0,99.90,-0.806,-0.193,-0.458,2.000,6.844,0.031,3.93,65.99,-4.32
11717713,0,0,0,99.90,-0.810,-0.192,-0.459,2.000,7.031,-0.031,3.98,65.96,-4.19
11727722,0,0,0,99.90,-0.812,-0.192,-0.460,1.938,6.938,0.062,3.85,65.96,-4.08
11737850,0,0,0,99.90,-0.813,-0.192,-0.461,1.875,6.812,0.156,3.80,66.12,-4.29
11747815,0,0,0,99.90,-0.812,-0.193,-0.460,1.812,6.719,0.188,3.74,66.12,-4.26
11757803,0,0,0,99.90,-0.811,-0.193,-0.459,1.844,6.719,0.188,3.74,66.09,-4.32
11767882,0,0,0,99.90,-0.809,-0.193,-0.458,1.875,6.719,0.156,3.74,65.91,-4.34
11777713,0,0,0,99.90,-0.808,-0.192,-0.458,1.906,6.781,0.125,3.85,65.96,-4.32
11787718,0,0,0,99.90,-0.807,-0.191,-0.458,1.938,6.844,0.094,3.95,66.20,-4.32
11797785,0,0,0,99.90,-0.807,-0.190,-0.459,1.875,6.906,0.031,3.93,66.17,-4.16
11807769,0,0,0,99.90,-0.808,-0.190,-0.459,1.719,7.031,-0.094,3.90,66.07,-4.13
11817749,0,0,0,99.90,-0.810,-0.191,-0.459,1.656,7.062,-0.156,3.80,65.99,-4.26
11827840,0,0,0,99.90,-0.811,-0.192,-0.459,1.656,7.031,-0.219,3.74,65.96,-4.24
11837717,0,0,0,99.90,-0.812,-0.193,-0.458,1.688,6.969,-0.219,3.82,65.96,-4.19
11847828,0,0,0,99.90,-0.812,-0.193,-0.458,1.719,6.938,-0.219,3.82,66.04,-4.19
11857815,0,0,0,99.90,-0.812,-0.193,-0.458,1.719,6.844,-0.156,3.85,66.07,-4.13
11867743,0,0,0,99.90,-0.811,-0.192,-0.459,1.719,6.781,-0.094,3.87,66.09,-4.11
11877758,0,0,0,99.90,-0.811,-0.192,-0.459,1.719,6.719,-0.094,3.85,66.14,-4.13
11887794,0,0,0,99.90,-0.810,-0.191,-0.459,1.781,6.688,-0.094,3.93,66.01,-4.16
11897847,0,0,0,99.90,-0.810,-0.191,-0.458,1.844,6.656,-0.125,3.93,66.04,-4.24
11907823,0,0,0,99.90,-0.811,-0.193,-0.456,1.938,6.656,-0.156,3.90,66.12,-4.47
11917863,0,0,0,99.90,-0.812,-0.193,-0.455,1.969,6.688,-0.188,3.90,66.01,-4.47
11927875,0,0,0,99.90,-0.812,-0.192,-0.456,1.969,6.719,-0.219,3.93,65.94,-4.21
11937777,0,0,0,99.90,-0.812,-0.191,-0.458,2.000,6.719,-0.219,3.95,65.88,-4.19
11947810,0,0,0,99.90,-0.812,-0.190,-0.459,1.969,6.750,-0.250,3.82,65.94,-4.24
11957780,0,0,0,99.90,-0.811,-0.190,-0.460,1.938,6.688,-0.250,3.67,65.99,-4.24
11967906,0,0,0,99.90,-0.810,-0.189,-0.461,1.906,6.562,-0.250,3.72,66.07,-4.21
11977889,0,0,0,99.90,-0.809,-0.189,-0.460,1.875,6.406,-0.281,3.85,65.99,-4.21
11987804,0,0,0,99.90,-0.809,-0.190,-0.459,1.844,6.250,-0.281,3.85,65.96,-4.26
11997798,0,0,0,99.90,-0.809,-0.193,-0.458,1.781,6.219,-0.281,3.80,65.96,-4.08
12007815,0,0,0,99.90,-0.810,-0.194,-0.458,1.781,6.344,-0.281,3.80,65.96,-4.03
12017704,0,0,0,99.90,-0.810,-0.194,-0.458,1.750,6.500,-0.312,3.90,65.99,-4.21
12027829,0,0,0,99.90,-0.810,-0.193,-0.458,1.750,6.625,-0.344,3.90,66.01,-4.32
12037713,0,0,0,99.90,-0.811,-0.191,-0.458,1.781,6.625,-0.344,3.74,66.07,-4.29
12047699,0,0,0,99.90,-0.813,-0.191,-0.457,1.781,6.531,-0.375,3.77,66.07,-4.29
12057710,0,0,0,99.90,-0.814,-0.191,-0.457,1.812,6.406,-0.406,3.85,65.99,-4.16
12067775,0,0,0,99.90,-0.814,-0.191,-0.457,1.844,6.250,-0.375,3.85,65.99,-4.42
12077735,0,0,0,99.90,-0.814,-0.191,-0.457,1.844,6.062,-0.250,3.85,66.09,-4.55
12087783,0,0,0,99.90,-0.812,-0.190,-0.457,1.781,5.750,0.031,3.98,66.01,-4.50
12097768,0,0,0,99.90,-0.810,-0.190,-0.457,1.781,5.750,0.125,3.93,65.96,-4.34
12107731,0,0,0,99.90,-0.808,-0.190,-0.456,1.812,5.969,0.156,3.80,65.96,-4.21
12117819,0,0,0,99.90,-0.808,-0.191,-0.456,1.875,6.312,0.156,3.80,66.01,-4.16
12127775,0,0,0,99.90,-0.808,-0.193,-0.456,1.938,6.719,0.125,3.77,65.96,-3.95
12137821,0,0,0,99.90,-0.809,-0.194,-0.456,2.031,7.000,0.125,3.64,66.01,-4.08
12147759,0,0,0,99.90,-0.810,-0.193,-0.456,2.031,7.125,0.094,3.85,66.14,-4.26
12157785,0,0,0,99.90,-0.812,-0.192,-0.457,2.031,7.125,0.094,3.98,66.12,-4.11
12167764,0,0,0,99.90,-0.814,-0.190,-0.457,2.000,7.000,0.094,3.85,66.09,-3.85
12177769,0,0,0,99.90,-0.815,-0.189,-0.458,1.938,6.812,0.156,3.90,66.17,-4.06
12187831,0,0,0,99.90,-0.817,-0.190,-0.459,1.812,6.281,0.344,3.85,66.09,-4.00
12197806,0,0,0,99.90,-0.816,-0.191,-0.458,1.812,6.031,0.469,3.87,65.99,-4.06
12207840,0,0,0,99.90,-0.815,-0.192,-0.456,1.844,5.781,0.594,3.93,66.07,-3.93
12217785,0,0,0,99.90,-0.813,-0.191,-0.455,1.875,5.656,0.625,3.85,66.12,-4.19
12227780,0,0,0,99.90,-0.809,-0.190,-0.455,1.906,5.719,0.625,3.80,66.17,-4.24
12237793,0,0,0,99.90,-0.806,-0.190,-0.456,1.875,5.938,0.469,3.77,66.07,-4.13
12247857,0,0,0,99.90,-0.805,-0.189,-0.457,1.844,6.312,0.250,3.69,66.01,-4.03
12257845,0,0,0,99.90,-0.806,-0.189,-0.458,1.781,6.688,-0.031,3.80,66.07,-4.16
12267880,0,0,0,99.90,-0.808,-0.190,-0.458,1.719,6.969,-0.219,3.90,66.09,-4.13
12277810,0,0,0,99.90,-0.813,-0.191,-0.457,1.625,6.969,-0.219,3.93,66.01,-4.21
12287791,0,0,0,99.90,-0.814,-0.192,-0.457,1.625,6.750,-0.062,3.85,66.12,-4.06
12297926,0,0,0,99.90,-0.814,-0.193,-0.457,1.656,6.531,0.094,3.85,66.20,-4.00
12307811,0,0,0,99.90,-0.813,-0.193,-0.457,1.688,6.406,0.219,3.82,66.20,-4.21
12317891,0,0,0,99.90,-0.812,-0.193,-0.458,1.750,6.406,0.281,3.74,66.20,-3.87
12327811,0,0,0,99.90,-0.811,-0.192,-0.458,1.750,6.438,0.250,3.82,66.22,-3.87
12337892,0,0,0,99.90,-0.809,-0.191,-0.459,1.750,6.531,0.125,3.98,66.14,-4.19
12347822,0,0,0,99.90,-0.808,-0.190,-0.458,1.688,6.594,-0.031,3.90,66.12,-4.19
12357920,0,0,0,99.90,-0.808,-0.190,-0.457,1.625,6.688,-0.188,3.67,66.07,-4.03
12367890,0,0,0,99.90,-0.810,-0.192,-0.454,1.531,6.844,-0.375,3.72,66.12,-4.03
12377855,0,0,0,99.90,-0.811,-0.192,-0.453,1.531,6.906,-0.375,3.95,66.25,-4.21
12387836,0,0,0,99.90,-0.811,-0.192,-0.454,1.562,6.906,-0.312,3.82,66.40,-4.50
12397930,0,0,0,99.90,-0.812,-0.192,-0.456,1.594,6.906,-0.281,3.80,66.27,-4.45
12407841,0,0,0,99.90,-0.813,-0.192,-0.457,1.594,6.875,-0.250,3.90,66.14,-4.21
12417855,0,0,0,99.90,-0.813,-0.192,-0.457,1.625,6.875,-0.250,3.77,66.07,-4.21
12427838,0,0,0,99.90,-0.812,-0.191,-0.457,1.656,6.906,-0.250,3.69,65.88,-4.13
12437859,0,0,0,99.90,-0.811,-0.192,-0.457,1.688,6.938,-0.312,3.72,66.01,-4.08
12447940,0,0,0,99.90,-0.809,-0.192,-0.457,1.719,7.031,-0.375,3.93,66.22,-4.08
12458016,0,0,0,99.90,-0.809,-0.193,-0.456,1.719,7.188,-0.500,3.90,66.20,-4.19
12468075,0,0,0,99.90,-0.811,-0.193,-0.456,1.719,7.219,-0.469,3.77,66.12,-4.32
12478009,0,0,0,99.90,-0.811,-0.192,-0.457,1.750,7.188,-0.375,3.77,66.12,-4.39
12488092,0,0,0,99.90,-0.811,-0.192,-0.458,1.750,7.094,-0.250,3.67,66.17,-4.16
12498016,0,0,0,99.90,-0.810,-0.193,-0.458,1.719,6.969,-0.188,3.74,66.14,-4.06
12508141,0,0,0,99.90,-0.810,-0.193,-0.457,1.688,6.875,-0.156,3.87,66.07,-4.00
12518063,0,0,0,99.90,-0.810,-0.194,-0.456,1.688,6.875,-0.188,3.82,66.07,-3.90
12528139,0,0,0,99.90,-0.810,-0.195,-0.456,1.750,6.938,-0.250,3.85,66.04,-4.13
12538051,0,0,0,99.90,-0.811,-0.195,-0.456,1.812,7.031,-0.281,3.77,66.04,-4.06
12548125,0,0,0,99.90,-0.811,-0.195,-0.457,1.844,7.094,-0.250,3.74,66.20,-4.19
12558064,0,0,0,99.90,-0.814,-0.193,-0.457,1.906,7.031,-0.188,3.74,66.17,-4.24
12568129,0,0,0,99.90,-0.814,-0.193,-0.457,1.938,6.969,-0.125,3.77,66.14,-4.03
12578143,0,0,0,99.90,-0.813,-0.193,-0.458,2.000,6.969,-0.094,3.80,66.09,-4.11
12588076,0,0,0,99.90,-0.812,-0.193,-0.458,2.031,6.969,-0.094,3.80,66.12,-3.95
12598048,0,0,0,99.90,-0.810,-0.193,-0.458,2.062,6.969,-0.125,3.82,66.22,-4.19
12608132,0,0,0,99.90,-0.810,-0.194,-0.457,2.031,6.969,-0.188,3.85,66.12,-4.37
12618148,0,0,0,99.90,-0.810,-0.193,-0.456,2.000,6.938,-0.219,3.82,65.96,-4.16
12628132,0,0,0,99.90,-0.812,-0.193,-0.457,1.969,6.906,-0.219,3.77,65.96,-3.87
12638050,0,0,0,99.90,-0.813,-0.192,-0.458,1.969,6.875,-0.156,3.74,66.07,-3.80
12648076,0,0,0,99.90,-0.814,-0.191,-0.458,1.969,6.844,-0.125,3.64,66.12,-4.08
12658061,0,0,0,99.90,-0.813,-0.191,-0.457,1.969,6.844,-0.156,3.72,66.12,-4.19
12668062,0,0,0,99.90,-0.811,-0.192,-0.455,2.000,6.906,-0.188,3.82,66.17,-4.11
12678184,0,0,0,99.90,-0.810,-0.192,-0.455,2.031,7.000,-0.250,3.80,66.14,-4.21
12688110,0,0,0,99.90,-0.810,-0.192,-0.455,2.062,7.094,-0.250,3.85,66.22,-4.16
12698153,0,0,0,99.90,-0.811,-0.192,-0.456,2.094,7.094,-0.250,4.00,66.12,-4.08
12708111,0,0,0,99.90,-0.813,-0.192,-0.457,2.125,7.000,-0.250,3.87,66.04,-4.13
12718089,0,0,0,99.90,-0.814,-0.191,-0.457,2.125,6.875,-0.188,3.80,66.04,-4.03
12728240,0,0,0,99.90,-0.814,-0.191,-0.457,2.125,6.750,-0.125,3.85,65.94,-4.24
12738107,0,0,0,99.90,-0.811,-0.191,-0.458,2.031,6.656,0.000,3.87,66.04,-4.39
12748141,0,0,0,99.90,-0.810,-0.193,-0.458,1.969,6.688,0.031,3.77,66.17,-4.29
12758202,0,0,0,99.90,-0.810,-0.193,-0.458,1.938,6.688,0.031,3.77,66.04,-3.87
12768222,0,0,0,99.90,-0.811,-0.193,-0.458,1.906,6.625,0.062,3.85,66.09,-4.08
12778214,0,0,0,99.90,-0.812,-0.192,-0.458,1.875,6.500,0.156,3.72,66.17,-4.24
12788150,0,0,0,99.90,-0.813,-0.191,-0.458,1.844,6.375,0.219,3.67,66.17,-3.93
12798037,0,0,0,99.90,-0.813,-0.190,-0.458,1.812,6.312,0.188,3.77,66.20,-4.08
12808101,0,0,0,99.90,-0.812,-0.190,-0.457,1.812,6.312,0.094,3.87,66.20,-4.16
12818109,0,0,0,99.90,-0.811,-0.191,-0.457,1.812,6.438,0.031,3.95,66.17,-4.29
12828102,0,0,0,99.90,-0.810,-0.192,-0.455,1.812,6.656,0.094,3.87,66.14,-4.39
12838135,0,0,0,99.90,-0.810,-0.192,-0.455,1.844,6.656,0.188,3.95,66.17,-4.24
12848132,0,0,0,99.90,-0.811,-0.192,-0.456,1.875,6.625,0.281,3.95,66.07,-3.98
12858046,0,0,0,99.90,-0.812,-0.191,-0.457,1.875,6.562,0.281,3.87,66.01,-4.08
12868107,0,0,0,99.90,-0.812,-0.190,-0.458,1.875,6.562,0.219,3.80,66.09,-4.32
12878124,0,0,0,99.90,-0.812,-0.190,-0.459,1.812,6.594,0.156,3.77,66.07,-4.34
12888120,0,0,0,99.90,-0.811,-0.190,-0.459,1.719,6.625,0.156,3.82,66.01,-4.19
12898071,0,0,0,99.90,-0.810,-0.190,-0.459,1.594,6.594,0.219,3.87,66.09,-4.08
12908060,0,0,0,99.90,-0.809,-0.191,-0.459,1.500,6.594,0.219,3.85,66.22,-4.00
12918075,0,0,0,99.90,-0.807,-0.192,-0.458,1.438,6.594,0.125,3.80,66.07,-3.95
12928138,0,0,0,99.90,-0.806,-0.193,-0.456,1.438,6.750,-0.188,3.69,66.12,-4.19
12938185,0,0,0,99.90,-0.807,-0.193,-0.456,1.469,6.844,-0.281,3.74,66.14,-4.26
12948086,0,0,0,99.90,-0.809,-0.193,-0.457,1.469,6.906,-0.281,3.93,65.96,-4.16
12958094,0,0,0,99.90,-0.812,-0.192,-0.458,1.469,6.906,-0.281,3.85,66.17,-4.06
12968071,0,0,0,99.90,-0.813,-0.191,-0.457,1.438,6.844,-0.219,3.77,66.20,-4.08
12978174,0,0,0,99.90,-0.814,-0.190,-0.456,1.406,6.750,-0.188,3.72,66.12,-4.16
12988206,0,0,0,99.90,-0.813,-0.191,-0.454,1.438,6.688,-0.219,3.74,66.22,-4.21
12998193,0,0,0,99.90,-0.812,-0.192,-0.454,1.469,6.656,-0.250,3.82,66.35,-4.11
13008132,0,0,0,99.90,-0.811,-0.193,-0.453,1.500,6.625,-0.312,3.77,66.20,-4.03
13018225,0,0,0,99.90,-0.813,-0.192,-0.453,1.438,6.625,-0.250,3.77,66.04,-3.98
13028190,0,0,0,99.90,-0.814,-0.190,-0.453,1.469,6.688,-0.156,3.85,66.14,-4.08
13038197,0,0,0,99.90,-0.815,-0.188,-0.454,1.562,6.750,-0.062,3.85,66.14,-4.24
13048241,0,0,0,99.90,-0.814,-0.188,-0.455,1.656,6.844,-0.031,3.82,66.12,-4.00
13058149,0,0,0,99.90,-0.813,-0.190,-0.456,1.719,6.906,-0.062,3.80,65.94,-3.95
13068248,0,0,0,99.90,-0.811,-0.192,-0.456,1.750,6.938,-0.156,3.72,65.94,-4.26
13078221,0,0,0,99.90,-0.811,-0.194,-0.455,1.719,6.906,-0.219,3.69,66.12,-4.26
13088149,0,0,0,99.90,-0.811,-0.196,-0.454,1.688,6.812,-0.250,3.85,66.01,-4.13
13098225,0,0,0,99.90,-0.811,-0.196,-0.455,1.656,6.750,-0.219,3.90,65.99,-4.29
13108156,0,0,0,99.90,-0.812,-0.195,-0.458,1.531,6.750,-0.156,3.90,66.07,-4.32
13118165,0,0,0,99.90,-0.813,-0.193,-0.458,1.469,6.750,-0.125,3.82,66.07,-4.16
13128156,0,0,0,99.90,-0.814,-0.193,-0.458,1.406,6.688,-0.125,3.69,66.20,-4.11
13138233,0,0,0,99.90,-0.814,-0.193,-0.457,1.406,6.531,-0.125,3.59,66.20,-4.19
13148178,0,0,0,99.90,-0.814,-0.194,-0.455,1.438,6.344,-0.094,3.61,66.12,-3.98
13158264,0,0,0,99.90,-0.813,-0.195,-0.454,1.531,6.188,-0.062,3.69,66.12,-3.85
13168284,0,0,0,99.90,-0.812,-0.195,-0.453,1.656,6.156,-0.031,3.77,66.07,-4.16
13178192,0,0,0,99.90,-0.810,-0.195,-0.452,1.719,6.281,0.000,3.77,66.07,-4.50
13188228,0,0,0,99.90,-0.808,-0.194,-0.451,1.750,6.500,-0.031,3.69,66.25,-4.21
13198219,0,0,0,99.90,-0.809,-0.193,-0.452,1.750,6.781,-0.062,3.72,66.17,-3.82
13208317,0,0,0,99.90,-0.814,-0.191,-0.453,1.781,7.219,-0.125,3.77,66.25,-3.82
13218222,0,0,0,99.90,-0.817,-0.190,-0.453,1.844,7.281,-0.125,3.69,66.22,-4.13
13228205,0,0,0,99.90,-0.818,-0.189,-0.453,1.938,7.281,-0.094,3.77,66.14,-4.21
13238297,0,0,0,99.90,-0.818,-0.189,-0.454,2.031,7.188,-0.062,3.77,66.17,-4.21
13248318,0,0,0,99.90,-0.818,-0.190,-0.454,2.031,7.062,-0.031,3.74,66.14,-4.19
13258313,0,0,0,99.90,-0.817,-0.191,-0.455,2.000,6.875,-0.031,3.74,66.20,-4.26
13268236,0,0,0,99.90,-0.816,-0.191,-0.455,1.938,6.719,-0.031,3.74,66.14,-4.39
13278320,0,0,0,99.90,-0.815,-0.191,-0.454,1.969,6.625,0.031,3.80,66.12,-4.19
13288246,0,0,0,99.90,-0.813,-0.191,-0.452,2.000,6.594,0.125,3.80,66.25,-4.13
13298243,0,0,0,99.90,-0.812,-0.191,-0.452,2.094,6.719,0.219,3.82,66.22,-4.03
13308241,0,0,0,99.90,-0.812,-0.191,-0.452,2.062,6.812,0.156,3.82,66.20,-3.95
13318324,0,0,0,99.90,-0.813,-0.190,-0.453,2.031,6.844,0.062,3.74,66.17,-4.19
13328360,0,0,0,99.90,-0.814,-0.189,-0.454,1.969,6.812,-0.062,3.74,66.14,-4.26
13338360,0,0,0,99.90,-0.815,-0.188,-0.455,1.875,6.719,-0.094,3.85,66.22,-4.34
13348268,0,0,0,99.90,-0.815,-0.188,-0.456,1.750,6.594,-0.094,3.77,66.14,-4.21
13358271,0,0,0,99.90,-0.814,-0.189,-0.456,1.625,6.469,-0.031,3.93,66.09,-4.06
13368265,0,0,0,99.90,-0.813,-0.190,-0.456,1.531,6.406,0.031,3.90,66.14,-3.87
13378277,0,0,0,99.90,-0.812,-0.191,-0.455,1.500,6.344,0.094,3.77,66.17,-4.11
13388272,0,0,0,99.90,-0.811,-0.192,-0.454,1.562,6.344,0.000,3.69,66.17,-4.21
13398371,0,0,0,99.90,-0.811,-0.192,-0.453,1.594,6.344,-0.062,3.69,66.17,-3.98
13408396,0,0,0,99.90,-0.812,-0.192,-0.453,1.625,6.406,-0.094,3.80,66.22,-3.93
13418301,0,0,0,99.90,-0.813,-0.191,-0.453,1.656,6.500,-0.125,3.80,66.09,-3.85
13428284,0,0,0,99.90,-0.814,-0.189,-0.453,1.656,6.594,-0.156,3.72,65.99,-3.87
13438306,0,0,0,99.90,-0.814,-0.187,-0.454,1.656,6.656,-0.188,3.77,66.12,-4.13
13448453,0,0,0,99.90,-0.815,-0.187,-0.454,1.625,6.656,-0.219,3.85,66.25,-4.00
13458455,0,0,0,99.90,-0.815,-0.188,-0.454,1.594,6.625,-0.188,3.74,66.40,-4.00
13468534,0,0,0,99.90,-0.815,-0.189,-0.454,1.594,6.625,-0.156,3.69,66.30,-4.16
13478432,0,0,0,99.90,-0.814,-0.190,-0.454,1.656,6.594,-0.094,3.74,66.17,-4.21
13488485,0,0,0,99.90,-0.813,-0.191,-0.454,1.750,6.625,-0.125,3.69,66.17,-4.29
13498463,0,0,0,99.90,-0.812,-0.191,-0.455,1.812,6.688,-0.156,3.77,66.25,-4.24
13508511,0,0,0,99.90,-0.810,-0.191,-0.456,1.812,6.750,-0.219,3.93,66.27,-4.26
13518512,0,0,0,99.90,-0.809,-0.191,-0.456,1.781,6.875,-0.312,3.85,66.14,-4.13
13528558,0,0,0,99.90,-0.810,-0.191,-0.456,1.688,7.000,-0.375,3.90,65.99,-4.11
13538530,0,0,0,99.90,-0.811,-0.190,-0.455,1.625,7.125,-0.406,3.95,66.09,-4.13
13548506,0,0,0,99.90,-0.812,-0.190,-0.455,1.562,7.188,-0.375,3.82,66.30,-4.21
13558591,0,0,0,99.90,-0.812,-0.190,-0.456,1.500,7.219,-0.344,3.80,66.33,-4.24
13568577,0,0,0,99.90,-0.813,-0.190,-0.456,1.469,7.188,-0.281,3.72,66.22,-4.16
13578551,0,0,0,99.90,-0.812,-0.191,-0.455,1.375,7.094,-0.188,3.69,66.20,-4.11
13588577,0,0,0,99.90,-0.813,-0.191,-0.455,1.344,7.000,-0.188,3.72,66.14,-4.32
13598592,0,0,0,99.90,-0.813,-0.190,-0.454,1.344,6.969,-0.250,3.74,66.20,-4.39
13608502,0,0,0,99.90,-0.813,-0.190,-0.454,1.344,6.938,-0.344,3.77,66.20,-4.34
13618577,0,0,0,99.90,-0.813,-0.190,-0.454,1.344,7.000,-0.375,3.72,66.04,-4.03
13628512,0,0,0,99.90,-0.813,-0.190,-0.454,1.344,7.062,-0.375,3.82,66.17,-3.98
13638588,0,0,0,99.90,-0.814,-0.191,-0.455,1.344,7.125,-0.344,3.87,66.20,-4.13
13648511,0,0,0,99.90,-0.814,-0.191,-0.455,1.375,7.156,-0.312,3.80,65.99,-4.06
13658604,0,0,0,99.90,-0.814,-0.190,-0.456,1.375,7.156,-0.250,3.90,66.09,-4.13
13668532,0,0,0,99.90,-0.813,-0.190,-0.455,1.344,7.094,-0.125,3.90,66.09,-4.13
13678491,0,0,0,99.90,-0.812,-0.190,-0.454,1.344,7.094,-0.125,3.82,66.09,-4.13
13688502,0,0,0,99.90,-0.812,-0.190,-0.454,1.312,7.125,-0.188,3.77,66.12,-4.29
13698624,0,0,0,99.90,-0.811,-0.190,-0.454,1.344,7.250,-0.281,3.69,66.20,-4.24
13708553,0,0,0,99.90,-0.811,-0.190,-0.456,1.406,7.375,-0.344,3.74,66.25,-3.85
13718514,0,0,0,99.90,-0.812,-0.191,-0.457,1.438,7.500,-0.344,3.85,66.14,-3.93
13728645,0,0,0,99.90,-0.813,-0.191,-0.458,1.438,7.500,-0.281,3.74,66.09,-4.16
13738607,0,0,0,99.90,-0.814,-0.192,-0.458,1.375,7.375,-0.219,3.72,66.12,-4.16
13748549,0,0,0,99.90,-0.816,-0.192,-0.457,1.281,7.156,-0.156,3.72,66.12,-4.06
13758524,0,0,0,99.90,-0.816,-0.191,-0.457,1.156,6.750,-0.125,3.85,66.14,-3.95
13768556,0,0,0,99.90,-0.813,-0.191,-0.457,1.156,6.688,-0.156,3.85,66.17,-4.19
13778631,0,0,0,99.90,-0.811,-0.191,-0.456,1.250,6.781,-0.219,3.82,66.17,-4.34
13788582,0,0,0,99.90,-0.810,-0.192,-0.455,1.344,6.938,-0.281,3.82,66.25,-4.32
13798522,0,0,0,99.90,-0.809,-0.193,-0.455,1.469,7.125,-0.281,3.80,66.20,-3.98
13808451,0,0,0,99.90,-0.810,-0.193,-0.454,1.531,7.250,-0.281,3.74,66.12,-3.77
13818446,0,0,0,99.90,-0.812,-0.193,-0.455,1.594,7.312,-0.281,3.74,66.14,-3.90
13828505,0,0,0,99.90,-0.813,-0.192,-0.456,1.625,7.250,-0.250,3.69,66.12,-4.00
13838458,0,0,0,99.90,-0.814,-0.191,-0.457,1.625,7.156,-0.219,3.69,66.12,-4.06
13848441,0,0,0,99.90,-0.814,-0.191,-0.458,1.562,6.969,-0.156,3.82,66.09,-4.19
13858518,0,0,0,99.90,-0.811,-0.193,-0.458,1.531,6.656,-0.031,3.85,66.09,-4.21
13868473,0,0,0,99.90,-0.810,-0.194,-0.456,1.594,6.562,-0.094,3.74,66.17,-4.08
13878528,0,0,0,99.90,-0.809,-0.195,-0.455,1.625,6.562,-0.188,3.77,66.07,-3.98
13888548,0,0,0,99.90,-0.808,-0.195,-0.454,1.688,6.656,-0.344,3.74,65.88,-4.16
13898537,0,0,0,99.90,-0.808,-0.195,-0.455,1.750,6.812,-0.438,3.77,66.04,-4.08
13908554,0,0,0,99.90,-0.809,-0.194,-0.457,1.781,6.969,-0.469,3.67,66.25,-4.19
13918472,0,0,0,99.90,-0.811,-0.193,-0.459,1.812,7.062,-0.438,3.77,66.20,-4.24
13928560,0,0,0,99.90,-0.812,-0.191,-0.459,1.812,7.062,-0.375,3.87,66.04,-4.19
13938577,0,0,0,99.90,-0.814,-0.190,-0.458,1.844,6.938,-0.312,3.90,66.12,-4.16
13948573,0,0,0,99.90,-0.814,-0.191,-0.454,2.000,6.688,-0.250,3.77,66.14,-4.03
13958552,0,0,0,99.90,-0.813,-0.192,-0.454,2.062,6.625,-0.250,3.77,66.07,-4.08
13968550,0,0,0,99.90,-0.812,-0.193,-0.455,2.031,6.625,-0.250,3.85,66.14,-4.24
13978505,0,0,0,99.90,-0.812,-0.193,-0.456,1.969,6.656,-0.250,3.64,66.14,-4.08
13988494,0,0,0,99.90,-0.810,-0.192,-0.457,1.906,6.688,-0.219,3.61,66.22,-4.03
13998577,0,0,0,99.90,-0.809,-0.191,-0.457,1.844,6.750,-0.156,3.87,66.20,-4.03
14008511,0,0,0,99.90,-0.808,-0.190,-0.457,1.812,6.875,-0.156,3.77,66.20,-3.82
14018582,0,0,0,99.90,-0.808,-0.191,-0.456,1.844,7.062,-0.156,3.64,66.22,-3.90
14028577,0,0,0,99.90,-0.809,-0.193,-0.456,1.938,7.219,-0.125,3.72,66.30,-3.98
14038588,0,0,0,99.90,-0.812,-0.195,-0.457,2.156,7.344,-0.062,3.67,66.25,-4.19
14048631,0,0,0,99.90,-0.814,-0.194,-0.458,2.219,7.250,-0.062,3.67,66.30,-4.13
14058637,0,0,0,99.90,-0.815,-0.193,-0.459,2.188,7.062,-0.062,3.67,66.25,-4.08
14068646,0,0,0,99.90,-0.815,-0.191,-0.459,2.062,6.844,-0.094,3.72,66.09,-4.06
14078620,0,0,0,99.90,-0.815,-0.190,-0.458,1.969,6.625,-0.125,3.77,66.07,-4.00
14088543,0,0,0,99.90,-0.814,-0.190,-0.458,1.906,6.469,-0.125,3.72,66.01,-3.85
14098550,0,0,0,99.90,-0.813,-0.191,-0.456,1.906,6.406,-0.094,3.74,65.96,-3.90
14108544,0,0,0,99.90,-0.813,-0.192,-0.455,1.938,6.438,-0.062,3.67,66.12,-4.03
14118671,0,0,0,99.90,-0.813,-0.192,-0.454,1.906,6.469,0.000,3.61,66.25,-4.00
14128603,0,0,0,99.90,-0.812,-0.190,-0.454,1.812,6.438,0.000,3.67,66.17,-4.16
14138643,0,0,0,99.90,-0.810,-0.187,-0.456,1.719,6.438,-0.062,3.74,66.14,-4.16
14148679,0,0,0,99.90,-0.809,-0.187,-0.456,1.594,6.500,-0.125,3.82,66.09,-4.11
14158592,0,0,0,99.90,-0.809,-0.188,-0.456,1.500,6.656,-0.156,3.74,66.09,-4.16
14168582,0,0,0,99.90,-0.810,-0.190,-0.456,1.469,6.781,-0.156,3.67,66.09,-4.13
14178590,0,0,0,99.90,-0.811,-0.192,-0.455,1.469,6.938,-0.156,3.59,66.14,-4.26
14188651,0,0,0,99.90,-0.812,-0.194,-0.456,1.531,7.031,-0.125,3.59,66.22,-4.37
14198604,0,0,0,99.90,-0.812,-0.194,-0.456,1.594,7.094,-0.094,3.69,66.14,-4.24
14208611,0,0,0,99.90,-0.812,-0.194,-0.455,1.656,7.094,-0.125,3.82,66.20,-4.19
14218610,0,0,0,99.90,-0.812,-0.194,-0.455,1.719,7.062,-0.188,3.82,66.20,-4.19
14228688,0,0,0,99.90,-0.812,-0.192,-0.455,1.688,7.000,-0.375,3.82,66.25,-4.21
14238670,0,0,0,99.90,-0.812,-0.192,-0.456,1.625,7.000,-0.438,3.82,66.07,-4.03
14248701,0,0,0,99.90,-0.813,-0.192,-0.456,1.562,6.969,-0.406,3.82,66.04,-4.11
14258675,0,0,0,99.90,-0.813,-0.192,-0.456,1.531,6.906,-0.344,3.80,66.12,-4.24
14268611,0,0,0,99.90,-0.813,-0.191,-0.455,1.469,6.812,-0.250,3.85,66.04,-4.21
14278684,0,0,0,99.90,-0.813,-0.191,-0.454,1.469,6.719,-0.156,3.82,66.14,-4.11
14288630,0,0,0,99.90,-0.812,-0.191,-0.454,1.438,6.688,-0.094,3.72,66.17,-4.13
14298738,0,0,0,99.90,-0.812,-0.191,-0.453,1.438,6.688,-0.094,3.64,66.14,-4.06
14308693,0,0,0,99.90,-0.811,-0.191,-0.453,1.469,6.719,-0.156,3.82,66.01,-3.93
14318636,0,0,0,99.90,-0.811,-0.191,-0.453,1.469,6.844,-0.375,3.85,66.09,-4.03
14328634,0,0,0,99.90,-0.812,-0.191,-0.453,1.469,6.875,-0.469,3.74,66.12,-4.16
14338627,0,0,0,99.90,-0.813,-0.191,-0.453,1.406,6.906,-0.500,3.87,66.12,-4.16
14348644,0,0,0,99.90,-0.814,-0.192,-0.453,1.344,6.906,-0.531,3.98,66.20,-4.08
14358653,0,0,0,99.90,-0.816,-0.192,-0.453,1.344,6.844,-0.500,3.82,66.17,-4.21
14368655,0,0,0,99.90,-0.816,-0.193,-0.454,1.375,6.750,-0.438,3.90,66.27,-4.34
14378752,0,0,0,99.90,-0.816,-0.193,-0.455,1.406,6.625,-0.375,3.95,66.25,-4.19
14388673,0,0,0,99.90,-0.816,-0.193,-0.456,1.469,6.469,-0.281,3.95,66.07,-4.24
14398673,0,0,0,99.90,-0.815,-0.193,-0.456,1.531,6.312,-0.188,3.90,66.20,-4.32
14408761,0,0,0,99.90,-0.782,-0.194,-0.455,1.562,6.188,-0.031,3.87,66.27,-3.85
14418764,0,0,0,99.90,-0.810,-0.194,-0.454,1.562,6.219,-0.031,3.77,66.12,-3.80
14428746,0,0,0,99.90,-0.810,-0.195,-0.453,1.625,6.281,-0.062,3.72,66.01,-4.16
14438897,0,0,0,99.90,-0.810,-0.195,-0.453,1.688,6.375,-0.125,3.82,65.96,-3.82
14448862,0,0,0,99.90,-0.811,-0.194,-0.453,1.781,6.500,-0.125,3.93,66.01,-3.82
14458872,0,0,0,99.90,-0.812,-0.194,-0.453,1.812,6.594,-0.094,3.98,66.14,-4.06
14468917,0,0,0,99.90,-0.813,-0.193,-0.454,1.812,6.688,-0.031,3.93,66.09,-4.08
14478936,0,0,0,99.90,-0.813,-0.192,-0.455,1.781,6.719,0.000,3.80,66.14,-3.85
14488882,0,0,0,99.90,-0.814,-0.191,-0.455,1.750,6.688,0.000,3.77,66.20,-4.11
14498938,0,0,0,99.90,-0.814,-0.191,-0.456,1.781,6.625,0.031,3.72,66.12,-4.16
14508839,0,0,0,99.90,-0.812,-0.193,-0.456,1.812,6.531,0.062,3.74,66.14,-4.13
14518976,0,0,0,99.90,-0.811,-0.194,-0.455,1.812,6.562,0.094,3.72,66.22,-4.32
14528921,0,0,0,99.90,-0.811,-0.194,-0.454,1.844,6.625,0.062,3.74,66.33,-4.34
14538974,0,0,0,99.90,-0.811,-0.193,-0.454,1.875,6.719,0.031,3.80,66.30,-4.29
14548910,0,0,0,99.90,-0.811,-0.192,-0.454,1.875,6.812,0.000,3.67,66.17,-4.13
14558937,0,0,0,99.90,-0.812,-0.191,-0.455,1.844,6.938,-0.062,3.64,66.22,-4.11
14568957,0,0,0,99.90,-0.812,-0.191,-0.454,1.844,7.031,-0.062,3.72,66.14,-4.11
14578963,0,0,0,99.90,-0.812,-0.192,-0.454,1.844,7.125,-0.094,3.64,66.09,-4.08
14588894,0,0,0,99.90,-0.812,-0.192,-0.454,1.812,7.156,-0.125,3.61,66.01,-4.19
14598965,0,0,0,99.90,-0.812,-0.192,-0.455,1.750,7.094,-0.094,3.74,66.20,-4.16
14608915,0,0,0,99.90,-0.812,-0.192,-0.455,1.719,7.000,-0.094,3.72,66.30,-4.06
14618917,0,0,0,99.90,-0.812,-0.192,-0.455,1.688,6.906,-0.094,3.72,66.20,-4.21
14628998,0,0,0,99.90,-0.813,-0.193,-0.455,1.688,6.812,-0.125,3.69,66.17,-4.24
14638964,0,0,0,99.90,-0.813,-0.193,-0.454,1.688,6.750,-0.188,3.80,66.17,-4.16
14649002,0,0,0,99.90,-0.812,-0.192,-0.453,1.688,6.781,-0.250,3.82,66.22,-3.95
14659018,0,0,0,99.90,-0.812,-0.192,-0.453,1.719,6.875,-0.281,3.82,66.22,-3.95
14668919,0,0,0,99.90,-0.812,-0.191,-0.453,1.750,7.031,-0.312,3.85,66.20,-4.19
14679023,0,0,0,99.90,-0.812,-0.190,-0.454,1.719,7.156,-0.312,3.74,66.07,-4.24
14689014,0,0,0,99.90,-0.812,-0.191,-0.456,1.562,7.125,-0.312,3.74,66.12,-4.19
14699017,0,0,0,99.90,-0.813,-0.191,-0.456,1.469,7.000,-0.281,3.87,66.25,-3.85
14708950,0,0,0,99.90,-0.813,-0.192,-0.455,1.438,6.875,-0.188,3.77,66.12,-4.03
14719056,0,0,0,99.90,-0.812,-0.192,-0.454,1.438,6.812,-0.125,3.61,66.09,-4.29
14729012,0,0,0,99.90,-0.811,-0.192,-0.454,1.500,6.844,-0.125,3.74,66.22,-4.16
14738943,0,0,0,99.90,-0.810,-0.192,-0.454,1.531,6.906,-0.156,3.77,66.14,-3.98
14748937,0,0,0,99.90,-0.810,-0.192,-0.455,1.531,7.031,-0.250,3.69,66.20,-3.90
14758967,0,0,0,99.90,-0.811,-0.192,-0.455,1.469,7.125,-0.344,3.69,66.30,-4.03
14768943,0,0,0,99.90,-0.812,-0.192,-0.455,1.438,7.188,-0.375,3.77,66.33,-4.16
14778964,0,0,0,99.90,-0.813,-0.192,-0.455,1.438,7.125,-0.281,3.67,66.07,-4.21
14788930,0,0,0,99.90,-0.813,-0.191,-0.455,1.469,7.000,-0.188,3.64,66.07,-4.19
14798944,0,0,0,99.90,-0.813,-0.191,-0.454,1.500,6.875,-0.094,3.72,66.09,-3.93
14808864,0,0,0,99.90,-0.812,-0.191,-0.454,1.469,6.781,-0.062,3.77,66.09,-3.93
14818975,0,0,0,99.90,-0.812,-0.192,-0.454,1.500,6.781,-0.062,3.69,66.12,-4.03
14828957,0,0,0,99.90,-0.811,-0.192,-0.455,1.531,6.844,-0.094,3.64,66.20,-3.87
14838892,0,0,0,99.90,-0.811,-0.193,-0.456,1.531,6.938,-0.156,3.74,66.14,-3.80
14848939,0,0,0,99.90,-0.811,-0.194,-0.456,1.562,6.969,-0.219,3.77,65.99,-3.90
14858952,0,0,0,99.90,-0.811,-0.194,-0.455,1.562,6.969,-0.250,3.90,65.96,-4.13
14868948,0,0,0,99.90,-0.812,-0.195,-0.454,1.594,6.938,-0.281,3.85,66.12,-4.06
14878965,0,0,0,99.90,-0.813,-0.194,-0.454,1.688,6.969,-0.312,3.72,66.07,-4.13
14888982,0,0,0,99.90,-0.813,-0.193,-0.455,1.688,7.000,-0.281,3.77,66.12,-4.29
14898974,0,0,0,99.90,-0.813,-0.192,-0.456,1.656,7.031,-0.219,3.74,66.22,-4.24
14908898,0,0,0,99.90,-0.813,-0.191,-0.457,1.625,7.000,-0.156,3.72,66.01,-4.13
14918913,0,0,0,99.90,-0.812,-0.191,-0.458,1.562,6.969,-0.125,3.74,66.12,-4.08
14928972,0,0,0,99.90,-0.811,-0.191,-0.457,1.500,6.906,-0.156,3.80,66.25,-4.08
14938931,0,0,0,99.90,-0.810,-0.192,-0.456,1.469,6.906,-0.250,3.74,66.20,-3.82
14948922,0,0,0,99.90,-0.809,-0.192,-0.455,1.469,7.000,-0.406,3.74,66.27,-3.69
14958935,0,0,0,99.90,-0.809,-0.193,-0.455,1.469,7.094,-0.531,3.82,66.30,-4.08
14968925,0,0,0,99.90,-0.812,-0.194,-0.455,1.375,7.062,-0.594,3.85,66.25,-4.34
14979010,0,0,0,99.90,-0.814,-0.193,-0.455,1.375,6.906,-0.531,3.87,66.17,-4.08
14988951,0,0,0,99.90,-0.816,-0.192,-0.455,1.469,6.688,-0.406,3.82,66.09,-3.95
14999016,0,0,0,99.90,-0.817,-0.192,-0.455,1.562,6.438,-0.344,3.77,66.33,-3.77
15009012,0,0,0,99.90,-0.817,-0.192,-0.454,1.656,6.250,-0.312,3.72,66.38,-3.67
15019054,0,0,0,99.90,-0.815,-0.193,-0.454,1.719,6.188,-0.312,3.85,66.09,-3.87
15029051,0,0,0,99.90,-0.813,-0.193,-0.454,1.781,6.188,-0.312,3.77,66.04,-4.03
15039062,0,0,0,99.90,-0.810,-0.193,-0.454,1.875,6.312,-0.312,3.69,66.09,-4.47
15049054,0,0,0,99.90,-0.809,-0.193,-0.454,1.906,6.531,-0.281,3.80,66.22,-4.45
15058968,0,0,0,99.90,-0.809,-0.192,-0.454,1.938,7.125,-0.188,3.80,66.12,-4.19
15069053,0,0,0,99.90,-0.810,-0.192,-0.454,1.938,7.375,-0.156,3.80,66.09,-4.47
15079037,0,0,0,99.90,-0.811,-0.192,-0.455,1.969,7.594,-0.125,3.95,66.35,-4.19
15088960,0,0,0,99.90,-0.813,-0.193,-0.456,1.969,7.750,-0.094,3.87,66.40,-3.98
15098976,0,0,0,99.90,-0.814,-0.193,-0.456,1.938,7.781,-0.094,3.87,66.27,-3.85
15109047,0,0,0,99.90,-0.815,-0.192,-0.456,1.938,7.750,-0.094,3.93,66.22,-3.85
15119051,0,0,0,99.90,-0.815,-0.191,-0.456,1.906,7.688,0.000,3.77,66.12,-4.16
15129074,0,0,0,99.90,-0.815,-0.191,-0.456,1.875,7.562,0.062,3.82,66.17,-3.98
15139093,0,0,0,99.90,-0.814,-0.190,-0.456,1.875,7.375,0.125,3.93,66.27,-4.08
15149002,0,0,0,99.90,-0.813,-0.190,-0.456,1.906,7.219,-0.031,3.85,66.22,-4.26
15158997,0,0,0,99.90,-0.812,-0.190,-0.456,1.969,7.031,-0.188,3.85,66.17,-4.21
15169082,0,0,0,99.90,-0.812,-0.190,-0.456,2.000,7.062,-0.312,3.77,66.17,-4.11
15179107,0,0,0,99.90,-0.813,-0.190,-0.456,1.969,7.125,-0.344,3.82,66.20,-4.19
15189005,0,0,0,99.90,-0.814,-0.190,-0.456,1.875,7.125,-0.312,3.90,66.09,-4.24
15199110,0,0,0,99.90,-0.814,-0.190,-0.456,1.812,7.031,-0.250,3.87,66.01,-4.42
15209076,0,0,0,99.90,-0.813,-0.191,-0.456,1.750,6.906,-0.188,3.95,66.04,-4.50
15219111,0,0,0,99.90,-0.812,-0.193,-0.455,1.719,6.750,-0.156,3.87,66.04,-4.39
15229022,0,0,0,99.90,-0.810,-0.193,-0.455,1.719,6.688,-0.188,3.85,66.07,-4.34
15239121,0,0,0,99.90,-0.810,-0.194,-0.455,1.781,6.656,-0.219,4.00,66.07,-4.24
15249033,0,0,0,99.90,-0.809,-0.192,-0.457,1.875,6.781,-0.281,4.16,65.99,-4.03
15259037,0,0,0,99.90,-0.809,-0.191,-0.458,1.844,6.875,-0.281,4.06,65.88,-4.13
15269029,0,0,0,99.90,-0.810,-0.192,-0.459,1.781,6.906,-0.250,3.93,65.94,-4.21
15279041,0,0,0,99.90,-0.811,-0.192,-0.458,1.719,6.938,-0.250,3.98,66.17,-4.19
15289107,0,0,0,99.90,-0.812,-0.193,-0.457,1.719,6.875,-0.250,3.95,66.17,-4.24
15299056,0,0,0,99.90,-0.813,-0.193,-0.456,1.750,6.812,-0.281,3.95,66.20,-4.24
15309109,0,0,0,99.90,-0.813,-0.192,-0.455,1.781,6.781,-0.281,3.90,66.25,-4.11
15319065,0,0,0,99.90,-0.812,-0.192,-0.455,1.844,6.812,-0.250,3.77,66.12,-4.08
15329124,0,0,0,99.90,-0.811,-0.191,-0.456,1.844,6.906,-0.188,3.82,66.07,-4.16
15339166,0,0,0,99.90,-0.810,-0.191,-0.458,1.719,7.000,-0.219,3.77,66.01,-4.03
15349063,0,0,0,99.90,-0.811,-0.191,-0.458,1.625,7.031,-0.312,3.72,66.01,-4.13
15359174,0,0,0,99.90,-0.812,-0.191,-0.457,1.562,7.031,-0.375,3.85,66.07,-4.32
15369154,0,0,0,99.90,-0.812,-0.192,-0.456,1.531,7.094,-0.375,3.87,66.20,-4.32
15379092,0,0,0,99.90,-0.812,-0.193,-0.454,1.531,7.125,-0.344,3.85,66.22,-4.26
15389090,0,0,0,99.90,-0.812,-0.194,-0.454,1.594,7.125,-0.312,3.90,66.30,-4.19
15399196,0,0,0,99.90,-0.812,-0.194,-0.455,1.688,7.062,-0.281,3.90,66.27,-4.21
15409164,0,0,0,99.90,-0.812,-0.193,-0.456,1.750,7.000,-0.312,3.87,66.30,-4.19
15419211,0,0,0,99.90,-0.813,-0.192,-0.457,1.750,6.969,-0.344,3.85,66.22,-4.19
15429115,0,0,0,99.90,-0.813,-0.191,-0.457,1.625,6.938,-0.312,3.85,66.01,-4.16
15439221,0,0,0,99.90,-0.813,-0.191,-0.456,1.625,6.906,-0.312,3.80,66.04,-4.03
15449356,0,0,0,99.90,-0.812,-0.192,-0.455,1.625,6.875,-0.281,3.85,66.12,-4.29
15459329,0,0,0,99.90,-0.812,-0.193,-0.455,1.656,6.844,-0.250,3.85,66.07,-4.45
15469349,0,0,0,99.90,-0.811,-0.193,-0.456,1.656,6.844,-0.281,3.93,66.12,-4.16
15479342,0,0,0,99.90,-0.811,-0.193,-0.457,1.688,6.812,-0.281,3.98,66.25,-4.16
15489385,0,0,0,99.90,-0.811,-0.193,-0.458,1.688,6.781,-0.281,4.08,66.01,-3.95
15499411,0,0,0,99.90,-0.810,-0.194,-0.458,1.656,6.750,-0.281,3.90,65.99,-4.00
15509345,0,0,0,99.90,-0.810,-0.194,-0.458,1.594,6.781,-0.281,3.85,66.17,-4.06
15519329,0,0,0,99.90,-0.811,-0.195,-0.458,1.531,6.781,-0.250,3.98,66.17,-3.87
15529349,0,0,0,99.90,-0.811,-0.194,-0.457,1.594,6.812,-0.250,3.95,66.25,-4.08
15539414,0,0,0,99.90,-0.812,-0.194,-0.456,1.656,6.812,-0.250,3.98,66.22,-4.29
15549403,0,0,0,99.90,-0.811,-0.194,-0.455,1.719,6.812,-0.188,3.93,66.17,-4.37
15559465,0,0,0,99.90,-0.811,-0.194,-0.455,1.750,6.844,-0.125,3.98,66.12,-4.21
15569403,0,0,0,99.90,-0.810,-0.194,-0.456,1.750,6.906,-0.062,4.00,66.07,-4.24
15579453,0,0,0,99.90,-0.810,-0.193,-0.456,1.719,6.969,-0.062,4.06,66.01,-4.16
15589453,0,0,0,99.90,-0.810,-0.192,-0.457,1.719,7.000,-0.094,4.06,66.17,-4.06
15599365,0,0,0,99.90,-0.811,-0.191,-0.458,1.750,6.969,-0.094,3.93,66.25,-4.08
15609378,0,0,0,99.90,-0.811,-0.192,-0.458,1.781,6.938,-0.125,3.90,66.20,-4.13
15619409,0,0,0,99.90,-0.811,-0.193,-0.456,1.844,7.000,-0.156,3.93,66.20,-4.21
15629419,0,0,0,99.90,-0.811,-0.193,-0.455,1.906,7.094,-0.188,3.87,66.17,-4.06
15639462,0,0,0,99.90,-0.812,-0.193,-0.455,1.969,7.125,-0.188,3.80,66.14,-4.24
15649455,0,0,0,99.90,-0.813,-0.192,-0.456,2.031,7.125,-0.188,3.77,66.14,-4.37
15659463,0,0,0,99.90,-0.814,-0.191,-0.457,2.031,7.031,-0.188,3.80,66.17,-4.21
15669467,0,0,0,99.90,-0.813,-0.191,-0.458,2.031,6.906,-0.219,3.87,66.12,-4.21
15679410,0,0,0,99.90,-0.812,-0.192,-0.459,1.969,6.812,-0.250,3.90,66.14,-4.19
15689456,0,0,0,99.90,-0.810,-0.193,-0.459,1.969,6.781,-0.250,3.93,66.14,-4.11
15699463,0,0,0,99.90,-0.809,-0.194,-0.459,1.969,6.750,-0.219,4.03,66.09,-4.11
15709420,0,0,0,99.90,-0.809,-0.194,-0.457,2.000,6.750,-0.188,3.98,66.12,-3.87
15719489,0,0,0,99.90,-0.810,-0.193,-0.457,2.000,6.750,-0.188,3.93,66.04,-4.08
15729500,0,0,0,99.90,-0.811,-0.193,-0.456,1.969,6.781,-0.188,4.00,66.04,-4.16
15739515,0,0,0,99.90,-0.812,-0.193,-0.456,1.938,6.844,-0.156,4.03,66.07,-4.11
15749488,0,0,0,99.90,-0.811,-0.192,-0.457,1.938,6.906,-0.125,3.98,66.07,-4.11
15759511,0,0,0,99.90,-0.810,-0.192,-0.459,1.938,6.969,-0.125,3.95,66.09,-4.06
15769532,0,0,0,99.90,-0.810,-0.193,-0.459,1.906,7.000,-0.094,3.93,66.07,-3.95
15779452,0,0,0,99.90,-0.810,-0.193,-0.459,1.875,7.031,-0.094,3.85,66.09,-3.80
15789438,0,0,0,99.90,-0.811,-0.193,-0.458,1.906,7.031,-0.031,3.80,66.01,-4.13
15799359,0,0,0,99.90,-0.812,-0.193,-0.456,1.969,6.969,0.156,3.87,66.12,-4.39
15809335,0,0,0,99.90,-0.814,-0.192,-0.455,2.000,6.938,0.219,3.90,66.04,-4.16
15819424,0,0,0,99.90,-0.814,-0.192,-0.455,2.031,6.906,0.250,3.93,65.94,-4.19
15829366,0,0,0,99.90,-0.814,-0.192,-0.456,2.062,6.844,0.219,3.93,66.07,-4.32
15839409,0,0,0,99.90,-0.813,-0.191,-0.456,2.062,6.750,0.188,3.90,66.17,-4.42
15849393,0,0,0,99.90,-0.812,-0.191,-0.457,2.031,6.688,0.156,3.87,66.14,-4.29
15859412,0,0,0,99.90,-0.810,-0.191,-0.457,1.969,6.656,0.125,3.98,66.12,-4.19
15869355,0,0,0,99.90,-0.809,-0.191,-0.458,1.906,6.719,0.125,4.08,66.22,-4.19
15879362,0,0,0,99.90,-0.808,-0.191,-0.457,1.812,6.875,0.125,3.93,66.09,-4.11
15889413,0,0,0,99.90,-0.808,-0.192,-0.457,1.719,7.031,0.031,3.82,65.91,-4.19
15899376,0,0,0,99.90,-0.810,-0.193,-0.457,1.625,7.062,-0.125,3.87,65.99,-3.93
15909430,0,0,0,99.90,-0.812,-0.194,-0.457,1.625,6.969,-0.188,3.95,66.20,-3.90
15919461,0,0,0,99.90,-0.813,-0.194,-0.458,1.562,6.812,-0.188,3.93,66.30,-4.03
15929460,0,0,0,99.90,-0.814,-0.194,-0.458,1.531,6.688,-0.156,3.95,66.30,-4.19
15939415,0,0,0,99.90,-0.813,-0.195,-0.458,1.469,6.562,-0.094,3.87,66.27,-4.11
15949436,0,0,0,99.90,-0.811,-0.195,-0.458,1.469,6.500,-0.031,3.90,66.17,-4.00
15959404,0,0,0,99.90,-0.809,-0.195,-0.458,1.500,6.469,0.031,4.00,66.09,-4.16
15969371,0,0,0,99.90,-0.808,-0.194,-0.459,1.562,6.500,0.062,3.93,66.20,-4.47
15979473,0,0,0,99.90,-0.808,-0.194,-0.458,1.594,6.531,0.125,3.85,66.22,-4.37
15989395,0,0,0,99.90,-0.811,-0.194,-0.456,1.656,6.594,0.094,3.93,66.12,-4.24
15999383,0,0,0,99.90,-0.812,-0.194,-0.456,1.719,6.562,0.062,3.98,66.17,-3.95
16009468,0,0,0,99.90,-0.812,-0.195,-0.456,1.719,6.500,0.000,3.95,66.12,-3.74
16019435,0,0,0,99.90,-0.812,-0.195,-0.456,1.719,6.469,-0.031,3.93,66.20,-4.06
16029389,0,0,0,99.90,-0.811,-0.195,-0.455,1.719,6.469,0.031,3.93,66.27,-4.34
16039393,0,0,0,99.90,-0.811,-0.195,-0.455,1.750,6.500,0.125,3.90,66.33,-4.29
16049387,0,0,0,99.90,-0.811,-0.195,-0.455,1.812,6.562,0.219,3.90,66.22,-4.32
16059481,0,0,0,99.90,-0.810,-0.194,-0.456,1.875,6.688,0.281,3.82,66.09,-4.39
16069465,0,0,0,99.90,-0.810,-0.194,-0.457,1.906,6.781,0.250,3.80,66.20,-4.32
16079409,0,0,0,99.90,-0.810,-0.193,-0.457,1.812,6.781,0.031,3.90,66.30,-4.37
16089476,0,0,0,99.90,-0.810,-0.193,-0.458,1.750,6.719,-0.125,3.82,66.30,-4.06
16099447,0,0,0,99.90,-0.810,-0.193,-0.458,1.688,6.656,-0.219,3.72,66.14,-3.82
16109470,0,0,0,99.90,-0.810,-0.194,-0.458,1.562,6.594,-0.312,3.64,66.09,-4.13
16119506,0,0,0,99.90,-0.810,-0.195,-0.458,1.469,6.562,-0.375,3.67,66.25,-4.21
16129492,0,0,0,99.90,-0.811,-0.195,-0.457,1.438,6.500,-0.375,3.85,66.22,-4.16
16139491,0,0,0,99.90,-0.812,-0.194,-0.456,1.469,6.375,-0.312,4.00,66.33,-4.11
16149531,0,0,0,99.90,-0.812,-0.194,-0.456,1.562,6.281,-0.250,4.03,66.27,-4.11
16159501,0,0,0,99.90,-0.812,-0.194,-0.455,1.625,6.188,-0.250,3.85,66.09,-4.16
16169505,0,0,0,99.90,-0.811,-0.195,-0.454,1.656,6.219,-0.344,3.82,66.14,-4.32
16179454,0,0,0,99.90,-0.809,-0.196,-0.453,1.656,6.469,-0.375,3.93,66.17,-4.19
16189441,0,0,0,99.90,-0.809,-0.196,-0.453,1.719,6.594,-0.344,3.98,66.12,-4.16
16199453,0,0,0,99.90,-0.810,-0.194,-0.454,1.844,6.656,-0.250,3.93,66.22,-4.24
16209449,0,0,0,99.90,-0.810,-0.194,-0.454,1.969,6.688,-0.094,3.93,66.38,-4.29
16219529,0,0,0,99.90,-0.811,-0.193,-0.453,2.094,6.750,0.000,3.87,66.38,-4.21
16229503,0,0,0,99.90,-0.811,-0.194,-0.453,2.188,6.906,0.031,3.98,66.27,-4.19
16239544,0,0,0,99.90,-0.811,-0.195,-0.454,2.219,7.094,-0.031,4.06,66.22,-4.26
16249488,0,0,0,99.90,-0.811,-0.196,-0.455,2.188,7.250,-0.156,3.90,66.12,-4.42
16259543,0,0,0,99.90,-0.811,-0.196,-0.456,2.156,7.344,-0.250,3.87,66.07,-4.24
16269481,0,0,0,99.90,-0.812,-0.195,-0.455,2.156,7.469,-0.281,4.06,66.20,-3.93
16279487,0,0,0,99.90,-0.812,-0.194,-0.454,2.125,7.500,-0.250,3.98,66.20,-4.08
16289481,0,0,0,99.90,-0.812,-0.193,-0.454,2.094,7.531,-0.219,3.93,66.20,-4.21
16299595,0,0,0,99.90,-0.813,-0.192,-0.453,2.031,7.531,-0.250,4.03,66.25,-4.29
16309502,0,0,0,99.90,-0.812,-0.191,-0.453,1.938,7.594,-0.281,3.95,66.17,-4.39
16319577,0,0,0,99.90,-0.811,-0.191,-0.454,1.875,7.719,-0.312,3.90,66.12,-4.24
16329586,0,0,0,99.90,-0.810,-0.191,-0.454,1.781,7.938,-0.312,3.95,66.12,-4.08
16339611,0,0,0,99.90,-0.809,-0.192,-0.455,1.656,8.281,-0.281,4.06,66.12,-4.24
16349518,0,0,0,99.90,-0.807,-0.192,-0.457,1.531,8.688,-0.281,3.95,66.09,-4.00
16359592,0,0,0,99.90,-0.805,-0.191,-0.459,1.281,9.500,-0.500,3.90,65.96,-3.85
16369527,0,0,0,99.90,-0.804,-0.191,-0.458,1.156,10.000,-0.688,3.93,65.91,-4.24
16379639,0,0,0,99.90,-0.804,-0.190,-0.458,1.062,10.562,-0.906,3.93,66.07,-4.26
16389626,0,0,0,99.90,-0.804,-0.189,-0.457,0.938,11.219,-1.062,3.95,66.12,-4.16
16399651,0,0,0,99.90,-0.806,-0.188,-0.457,0.719,11.844,-1.156,4.08,65.88,-4.13
16409551,0,0,0,99.90,-0.807,-0.187,-0.458,0.469,12.344,-1.156,4.03,65.83,-4.52
16419556,0,0,0,99.90,-0.809,-0.187,-0.459,0.188,12.594,-1.156,3.69,65.75,-4.47
16429654,0,0,0,99.90,-0.810,-0.186,-0.461,-0.031,12.562,-1.125,3.77,65.75,-4.19
16439672,0,0,0,99.90,-0.811,-0.185,-0.464,-0.250,12.312,-1.094,3.93,65.81,-4.24
16449729,0,0,0,99.90,-0.811,-0.183,-0.468,-0.688,11.594,-1.031,3.90,65.83,-4.39
16459786,0,0,0,99.90,-0.811,-0.176,-0.470,-0.906,11.125,-1.062,3.85,65.86,-4.47
16469785,0,0,0,99.90,-0.811,-0.171,-0.471,-1.188,10.500,-1.219,3.93,65.81,-4.63
16479777,0,0,0,99.90,-0.810,-0.167,-0.472,-1.469,9.781,-1.500,3.85,65.83,-4.68
16489718,0,0,0,99.90,-0.810,-0.164,-0.471,-1.781,9.125,-1.812,3.74,65.91,-4.52
16499789,0,0,0,99.90,-0.810,-0.165,-0.471,-2.062,8.656,-2.062,3.74,65.83,-4.39
16509753,0,0,0,99.90,-0.811,-0.171,-0.470,-2.344,8.562,-2.188,3.90,65.70,-4.58
16519782,0,0,0,99.90,-0.812,-0.180,-0.470,-2.562,8.781,-2.125,3.93,65.55,-4.78
16529756,0,0,0,99.90,-0.812,-0.191,-0.470,-2.719,9.031,-1.938,3.87,65.68,-4.71
16539786,0,0,0,99.90,-0.813,-0.198,-0.471,-2.750,9.000,-1.750,3.77,65.88,-4.65
16549789,0,0,0,99.90,-0.813,-0.195,-0.473,-2.562,7.812,-1.562,3.74,65.83,-4.55
16559800,0,0,0,99.90,-0.813,-0.187,-0.472,-2.375,7.094,-1.625,3.90,65.73,-4.42
16569721,0,0,0,99.90,-0.813,-0.181,-0.470,-2.156,6.625,-1.719,3.85,65.65,-4.65
16579747,0,0,0,99.90,-0.812,-0.177,-0.467,-2.000,6.438,-1.750,3.82,65.68,-4.50
16589814,0,0,0,99.90,-0.810,-0.177,-0.466,-1.969,6.562,-1.750,3.80,65.78,-4.29
16599823,0,0,0,99.90,-0.806,-0.180,-0.467,-2.094,6.844,-1.688,3.72,65.73,-4.47
16609820,0,0,0,99.90,-0.802,-0.184,-0.468,-2.312,7.281,-1.656,3.74,65.60,-4.68
16619863,0,0,0,99.90,-0.798,-0.187,-0.468,-2.656,7.844,-1.688,3.77,65.57,-4.84
16629802,0,0,0,99.90,-0.796,-0.188,-0.469,-3.031,8.469,-1.844,3.74,65.70,-4.73
16639883,0,0,0,99.90,-0.797,-0.188,-0.469,-3.625,9.594,-2.344,3.82,65.70,-4.78
16649754,0,0,0,99.90,-0.801,-0.189,-0.470,-3.719,9.781,-2.562,3.77,65.49,-5.02
16659841,0,0,0,99.90,-0.804,-0.190,-0.471,-3.750,9.594,-2.750,3.72,65.47,-5.15
16669795,0,0,0,99.90,-0.807,-0.191,-0.472,-3.719,9.125,-2.906,3.67,65.49,-5.15
16679773,0,0,0,99.90,-0.809,-0.192,-0.474,-3.750,8.500,-3.031,3.74,65.39,-4.86
16689758,0,0,0,99.90,-0.811,-0.193,-0.474,-3.781,7.719,-3.125,3.61,65.42,-4.50
16699782,0,0,0,99.90,-0.812,-0.195,-0.473,-3.719,6.781,-3.219,3.48,65.44,-4.63
16709753,0,0,0,99.90,-0.812,-0.197,-0.471,-3.406,5.750,-3.312,3.38,65.55,-4.99
16719878,0,0,0,99.90,-0.809,-0.200,-0.469,-2.875,4.781,-3.344,3.38,65.70,-4.84
16729812,0,0,0,99.90,-0.803,-0.204,-0.466,-1.562,3.625,-3.500,3.54,65.70,-4.73
16739868,0,0,0,99.90,-0.802,-0.208,-0.466,-0.969,3.469,-3.594,3.56,65.52,-4.89
16749810,0,0,0,99.90,-0.803,-0.211,-0.466,-0.375,3.438,-3.625,3.61,65.42,-4.78
16759896,0,0,0,99.90,-0.806,-0.215,-0.464,0.344,3.219,-3.656,3.72,65.55,-4.63
16769814,0,0,0,99.90,-0.810,-0.219,-0.464,1.312,2.719,-3.625,3.59,65.60,-4.68
16779889,0,0,0,99.90,-0.813,-0.223,-0.464,2.562,1.844,-3.625,3.64,65.60,-4.50
16789872,0,0,0,99.90,-0.815,-0.226,-0.465,4.000,0.719,-3.656,3.74,65.75,-4.65
16799827,0,0,0,99.90,-0.815,-0.228,-0.467,5.438,-0.406,-3.750,3.77,65.83,-4.78
16809900,0,0,0,99.90,-0.815,-0.228,-0.468,6.719,-1.375,-3.969,3.74,65.81,-4.71
16819915,0,0,0,99.90,-0.815,-0.228,-0.467,7.906,-2.812,-4.625,3.90,65.86,-4.52
16829903,0,0,0,99.90,-0.812,-0.231,-0.462,10.125,-3.250,-4.969,3.90,65.94,-4.24
16839907,0,0,0,99.90,-0.810,-0.232,-0.459,11.031,-3.375,-5.312,3.93,65.94,-4.06
16849891,0,0,0,99.90,-0.806,-0.232,-0.457,11.719,-3.000,-5.562,4.08,65.94,-3.93
16859929,0,0,0,99.90,-0.802,-0.232,-0.455,12.125,-2.250,-5.781,4.11,65.94,-4.16
16869845,0,0,0,99.90,-0.799,-0.234,-0.454,12.312,-1.250,-6.000,4.39,65.91,-4.16
16879942,0,0,0,99.90,-0.796,-0.237,-0.455,12.344,-0.250,-6.281,4.45,65.99,-4.08
16889892,0,0,0,99.90,-0.794,-0.241,-0.457,12.156,0.656,-6.688,4.37,65.99,-3.80
16899938,0,0,0,99.90,-0.793,-0.245,-0.458,11.688,1.469,-7.094,4.45,65.96,-3.80
16909948,0,0,0,99.90,-0.794,-0.249,-0.460,10.875,2.219,-7.469,4.63,65.99,-4.11
16919901,0,0,0,99.90,-0.800,-0.259,-0.465,8.750,4.031,-8.094,4.65,65.86,-4.24
16929886,0,0,0,99.90,-0.802,-0.265,-0.466,7.781,4.750,-8.469,4.60,65.78,-4.21
16939884,0,0,0,99.90,-0.801,-0.269,-0.464,7.031,4.938,-9.031,4.71,65.94,-4.13
16949961,0,0,0,99.90,-0.799,-0.269,-0.460,6.719,4.219,-9.750,4.89,65.96,-3.85
16959954,0,0,0,99.90,-0.797,-0.267,-0.456,6.906,2.688,-10.625,4.94,65.96,-3.90
16969938,0,0,0,99.90,-0.798,-0.266,-0.456,7.406,1.250,-11.594,4.97,65.99,-3.82
16979965,0,0,0,99.90,-0.801,-0.265,-0.458,7.844,0.906,-12.469,5.04,65.94,-3.51
16989927,0,0,0,99.90,-0.802,-0.260,-0.456,8.062,1.812,-13.219,5.10,65.81,-3.61
17000029,0,0,0,99.90,-0.801,-0.247,-0.449,8.250,3.156,-13.719,5.43,65.88,-4.06
17009954,0,0,0,99.90,-0.797,-0.208,-0.425,9.406,4.688,-13.594,5.54,65.86,-3.80
17019940,0,0,0,99.90,-0.797,-0.193,-0.417,10.250,4.750,-12.875,5.56,65.75,-3.56
17029845,0,0,0,99.90,-0.797,-0.188,-0.413,11.062,4.688,-11.781,5.67,65.78,-3.67
17039927,0,0,0,99.90,-0.799,-0.190,-0.414,11.688,4.719,-10.438,5.64,65.78,-3.56
17049909,0,0,0,99.90,-0.800,-0.198,-0.418,12.094,4.875,-9.000,5.82,65.68,-3.33
17059842,0,0,0,99.90,-0.799,-0.208,-0.423,12.312,5.031,-7.688,5.93,65.81,-3.30
17069918,0,0,0,99.90,-0.797,-0.213,-0.424,12.656,4.938,-6.719,5.82,65.94,-3.15
17079905,0,0,0,99.90,-0.795,-0.210,-0.419,13.844,4.250,-6.312,6.06,65.91,-3.25
17089890,0,0,0,99.90,-0.797,-0.200,-0.410,16.656,2.688,-6.344,6.34,65.81,-3.54
17099905,0,0,0,99.90,-0.805,-0.196,-0.417,24.625,-1.375,-6.281,6.50,65.91,-3.38
17109841,0,0,0,99.90,-0.811,-0.227,-0.433,26.062,-2.188,-5.719,6.47,65.83,-2.96
17119951,0,0,0,99.90,-0.807,-0.246,-0.446,24.469,-1.719,-5.156,6.63,65.75,-2.73
17129861,0,0,0,99.90,-0.806,-0.259,-0.452,20.938,-0.375,-4.938,6.81,65.83,-2.81
17139953,0,0,0,99.90,-0.806,-0.270,-0.453,16.875,1.281,-5.094,6.86,65.94,-2.83
17149876,0,0,0,99.90,-0.803,-0.280,-0.447,13.531,2.469,-6.125,7.07,66.07,-2.55
17159880,0,0,0,99.90,-0.802,-0.285,-0.428,12.438,1.406,-9.344,7.46,66.20,-2.13
17169962,0,0,0,99.90,-0.815,-0.283,-0.399,15.188,-4.031,-16.000,7.72,66.09,-1.98
17179965,0,0,0,99.90,-0.837,-0.284,-0.375,21.812,-14.312,-26.312,8.29,65.86,-1.74
17189962,0,0,0,99.90,-0.848,-0.291,-0.369,29.844,-26.094,-39.344,8.68,65.65,-1.66
17199898,0,0,0,99.90,-0.819,-0.313,-0.425,35.375,-30.094,-66.750,9.00,65.42,-1.72
17209889,0,0,0,99.90,-0.811,-0.323,-0.455,30.125,-16.938,-75.406,9.36,65.16,-2.03
17219994,0,0,0,99.90,-0.814,-0.332,-0.461,22.562,0.344,-76.875,9.85,64.95,-1.98
17229981,0,0,0,99.90,-0.818,-0.338,-0.444,16.688,13.938,-71.312,10.37,64.69,-1.74
17239997,0,0,0,99.90,-0.815,-0.337,-0.418,15.312,19.156,-61.500,10.69,64.48,-1.53
17249987,0,0,0,99.90,-0.804,-0.323,-0.400,18.688,16.094,-51.156,10.74,64.43,-1.43
17260006,0,0,0,99.90,-0.788,-0.299,-0.395,24.719,8.406,-43.062,10.92,64.38,-1.30
17270006,0,0,0,99.90,-0.772,-0.277,-0.398,30.031,0.719,-38.125,11.21,64.45,-1.20
17279931,0,0,0,99.90,-0.757,-0.280,-0.399,31.969,-3.938,-35.469,11.44,64.45,-1.20
17289985,0,0,0,99.90,-0.728,-0.387,-0.392,22.219,-2.906,-29.250,11.54,64.27,-1.66
17299946,0,0,0,99.90,-0.718,-0.449,-0.390,12.750,2.188,-23.031,11.49,64.06,-1.82
17310005,0,0,0,99.90,-0.717,-0.488,-0.394,3.562,8.281,-15.000,11.41,64.04,-1.30
17320013,0,0,0,99.90,-0.721,-0.500,-0.408,-3.594,12.625,-6.812,11.34,64.17,-1.33
17330005,0,0,0,99.90,-0.726,-0.487,-0.423,-8.688,13.469,-0.406,11.23,64.17,-1.51
17340013,0,0,0,99.90,-0.727,-0.453,-0.425,-12.125,11.219,3.062,11.13,64.22,-1.20
17350007,0,0,0,99.90,-0.733,-0.410,-0.409,-13.312,7.375,3.188,11.18,64.40,-0.75
17360043,0,0,0,99.90,-0.759,-0.369,-0.384,-10.688,1.969,0.375,11.26,64.66,-0.81
17370029,0,0,0,99.90,-0.812,-0.335,-0.360,-3.469,-6.750,-3.812,11.26,64.84,-0.86
17380050,0,0,0,99.90,-0.887,-0.293,-0.347,14.188,-31.750,-8.125,11.21,65.00,-0.68
17390048,0,0,0,99.90,-0.851,-0.296,-0.361,16.438,-38.281,-8.312,11.31,65.08,-0.52
17400052,0,0,0,99.90,-0.784,-0.313,-0.378,12.531,-35.156,-9.875,11.41,65.05,-0.47
17409967,0,0,0,99.90,-0.726,-0.330,-0.380,5.406,-23.688,-13.438,11.62,64.95,-0.70
17420070,0,0,0,99.90,-0.703,-0.332,-0.360,-0.625,-8.875,-17.188,11.70,64.79,-0.75
17430064,0,0,0,99.90,-0.712,-0.314,-0.330,-2.875,3.875,-18.438,11.60,64.71,-0.65
17440234,0,0,0,99.90,-0.727,-0.289,-0.315,-1.750,11.844,-15.844,11.52,64.64,-0.78
17450207,0,0,0,99.90,-0.730,-0.269,-0.321,0.344,15.719,-10.062,11.52,64.51,-0.70
17460270,0,0,0,99.90,-0.723,-0.258,-0.337,1.406,18.156,-3.062,11.52,64.32,-0.57
17470241,0,0,0,99.90,-0.716,-0.250,-0.338,0.000,26.438,8.812,11.39,64.19,-1.07
17480282,0,0,0,99.90,-0.710,-0.228,-0.317,-0.812,32.156,13.781,11.28,64.22,-1.43
17490323,0,0,0,99.90,-0.696,-0.225,-0.303,-1.031,36.812,19.031,11.23,64.14,-1.53
17500286,0,0,0,99.90,-0.677,-0.241,-0.312,-0.625,39.406,24.469,11.10,64.09,-1.35
17510194,0,0,0,99.90,-0.666,-0.282,-0.347,0.219,40.219,29.031,10.95,63.91,-1.66
17520225,0,0,0,99.90,-0.672,-0.342,-0.393,1.188,40.312,30.875,10.84,63.67,-1.95
17530304,0,0,0,99.90,-0.696,-0.402,-0.430,1.969,40.719,28.438,11.02,63.44,-2.18
17540351,0,0,0,99.90,-0.739,-0.447,-0.438,2.281,42.125,21.781,11.15,63.15,-2.57
17550277,0,0,0,99.90,-0.793,-0.471,-0.418,2.469,44.531,12.750,11.34,62.95,-2.60
17560278,0,0,0,99.90,-0.848,-0.479,-0.384,3.250,47.000,3.906,11.47,62.82,-2.60
17570230,0,0,0,99.90,-0.925,-0.450,-0.348,9.969,45.688,-5.594,11.52,62.69,-2.60
17580356,0,0,0,99.90,-0.933,-0.400,-0.360,16.375,39.438,-4.188,11.54,62.76,-2.44
17590348,0,0,0,99.90,-0.911,-0.337,-0.393,23.156,31.062,1.219,11.60,62.63,-2.52
17600352,0,0,0,99.90,-0.860,-0.286,-0.439,27.781,24.406,8.719,11.54,62.40,-2.94
17610243,0,0,0,99.90,-0.792,-0.278,-0.489,27.938,22.688,15.375,11.57,62.37,-2.89
17620365,0,0,0,99.90,-0.722,-0.327,-0.529,22.906,26.031,18.438,11.65,62.24,-2.99
17630356,0,0,0,99.90,-0.656,-0.421,-0.553,13.875,32.062,16.562,11.57,61.57,-3.51
17640356,0,0,0,99.90,-0.590,-0.523,-0.561,3.250,39.250,9.969,11.52,60.61,-4.00
17650255,0,0,0,99.90,-0.499,-0.589,-0.566,-7.406,51.594,-0.125,11.62,59.15,-4.99
17660283,0,0,0,99.90,-0.310,-0.508,-0.597,-31.562,124.500,-27.406,11.70,58.06,-5.72
17670356,0,0,0,99.90,-0.439,-0.404,-0.577,-43.219,170.594,-39.750,11.62,57.49,-6.16
17680301,0,0,0,99.90,-0.778,-0.319,-0.505,-46.594,185.375,-43.938,11.67,57.54,-6.03
17690360,0,0,0,99.90,-1.156,-0.276,-0.411,-36.531,150.281,-35.906,11.73,57.88,-6.01
17700320,0,0,0,99.90,-1.347,-0.269,-0.352,-15.969,78.156,-18.156,11.73,57.98,-5.98
17710264,0,0,0,99.90,-1.260,-0.277,-0.364,5.062,4.375,1.094,11.75,58.08,-5.75
17720404,0,0,0,99.90,-0.983,-0.286,-0.435,16.938,-38.875,13.469,11.75,58.11,-5.62
17730387,0,0,0,99.90,-0.698,-0.295,-0.514,17.188,-42.500,15.750,11.67,58.19,-5.59
17740394,0,0,0,99.90,-0.541,-0.312,-0.553,10.719,-20.812,10.781,11.70,58.34,-5.59
17750397,0,0,0,99.90,-0.636,-0.381,-0.504,3.219,14.531,0.344,11.80,58.40,-5.30
17760366,0,0,0,99.90,-0.734,-0.418,-0.482,5.969,10.781,0.500,11.75,58.37,-5.38
17770292,0,0,0,99.90,-0.773,-0.438,-0.496,9.719,0.188,3.219,11.78,58.45,-5.49
17780404,0,0,0,99.90,-0.743,-0.433,-0.537,11.406,-7.625,6.062,11.78,58.47,-5.28
17790284,0,0,0,99.90,-0.679,-0.408,-0.580,9.938,-8.062,7.219,11.78,58.40,-5.36
17800292,0,0,0,99.90,-0.622,-0.381,-0.601,6.281,-2.250,6.344,11.62,58.29,-5.43
17810196,0,0,0,99.90,-0.594,-0.372,-0.594,2.219,5.875,4.344,11.60,58.16,-5.62
17820217,0,0,0,99.90,-0.582,-0.382,-0.572,-1.062,13.406,2.312,11.73,57.59,-6.21
17830285,0,0,0,99.90,-0.537,-0.389,-0.565,-3.906,22.375,-0.188,11.70,56.11,-6.89
17840329,0,0,0,99.90,-0.415,-0.353,-0.600,-8.438,82.406,-18.719,11.78,54.08,-7.93
17850290,0,0,0,99.90,-0.165,-0.231,-0.716,-27.562,143.688,-37.188,11.96,51.90,-8.94
17860334,0,0,0,99.90,-0.247,-0.251,-0.694,-37.281,210.375,-56.250,12.19,49.87,-9.44
17870220,0,0,0,99.90,-0.486,-0.329,-0.598,-41.125,260.625,-69.188,12.35,48.72,-9.98
17880329,0,0,0,99.90,-0.772,-0.409,-0.480,-36.750,278.562,-71.906,12.48,47.40,-10.43
17890344,0,0,0,99.90,-0.978,-0.444,-0.420,-25.406,261.906,-64.688,12.69,46.38,-10.27
17900343,0,0,0,99.90,-1.025,-0.430,-0.460,-11.312,221.844,-51.531,12.92,45.32,-10.37
17910348,0,0,0,99.90,-0.910,-0.398,-0.584,0.406,175.781,-38.031,12.97,44.30,-10.82
17920250,0,0,0,99.90,-0.701,-0.380,-0.735,6.344,138.375,-28.719,12.92,43.32,-11.00
17930245,0,0,0,99.90,-0.494,-0.386,-0.851,6.125,116.062,-25.500,12.90,42.30,-11.00
17940355,0,0,0,99.90,-0.317,-0.428,-0.880,-2.906,108.094,-31.844,13.00,41.47,-11.34
17950251,0,0,0,99.90,-0.345,-0.439,-0.821,-6.500,110.188,-35.906,13.08,40.92,-11.31
17960367,0,0,0,99.90,-0.411,-0.437,-0.752,-7.344,107.656,-37.688,13.08,40.61,-11.39
17970348,0,0,0,99.90,-0.493,-0.425,-0.694,-5.156,96.188,-36.031,13.08,40.61,-11.62
17980374,0,0,0,99.90,-0.575,-0.418,-0.661,-0.719,74.844,-30.312,13.18,40.77,-11.57
17990362,0,0,0,99.90,-0.642,-0.427,-0.659,4.594,46.000,-20.906,13.39,41.29,-11.41
18000280,0,0,0,99.90,-0.675,-0.455,-0.683,9.688,13.688,-9.375,13.47,41.96,-10.89
18010382,0,0,0,99.90,-0.660,-0.495,-0.716,14.031,-18.625,2.031,13.47,42.87,-10.71
18020292,0,0,0,99.90,-0.604,-0.531,-0.741,17.500,-48.562,11.188,13.52,43.76,-10.87
18030376,0,0,0,99.90,-0.460,-0.543,-0.745,20.719,-91.812,19.344,13.55,44.30,-10.82
18040403,0,0,0,99.90,-0.408,-0.520,-0.735,20.281,-101.125,18.719,13.57,44.95,-10.40
18050299,0,0,0,99.90,-0.375,-0.500,-0.727,18.625,-102.688,16.094,13.62,45.66,-10.32
18060388,0,0,0,99.90,-0.367,-0.496,-0.718,16.188,-99.156,12.812,13.55,46.28,-10.22
18070407,0,0,0,99.90,-0.383,-0.505,-0.698,13.812,-92.531,10.125,13.55,46.64,-9.70
18080407,0,0,0,99.90,-0.412,-0.514,-0.667,12.156,-82.812,8.812,13.62,46.90,-9.36
18090416,0,0,0,99.90,-0.439,-0.514,-0.635,11.156,-68.938,8.531,13.70,47.27,-9.72
18100414,0,0,0,99.90,-0.458,-0.501,-0.615,10.344,-51.406,8.531,13.62,47.55,-9.88
18110331,0,0,0,99.90,-0.475,-0.479,-0.613,9.406,-33.656,8.344,13.52,47.81,-9.57
18120336,0,0,0,99.90,-0.499,-0.453,-0.627,7.812,-15.594,8.250,13.52,48.00,-9.31
18130398,0,0,0,99.90,-0.536,-0.414,-0.682,7.219,-17.438,8.625,13.47,48.39,-9.46
18140438,0,0,0,99.90,-0.527,-0.409,-0.708,6.500,-22.469,8.938,13.47,48.67,-9.52
18150403,0,0,0,99.90,-0.505,-0.407,-0.723,5.375,-27.406,8.750,13.44,48.96,-9.54
18160348,0,0,0,99.90,-0.488,-0.407,-0.729,3.719,-30.875,7.875,13.44,49.37,-9.05
18170343,0,0,0,99.90,-0.491,-0.411,-0.733,1.594,-33.062,6.500,13.36,49.74,-8.74
18180454,0,0,0,99.90,-0.518,-0.424,-0.740,-0.781,-35.000,5.188,13.21,50.08,-8.76
18190414,0,0,0,99.90,-0.559,-0.437,-0.746,-3.156,-38.594,4.656,12.92,50.80,-8.76
18200361,0,0,0,99.90,-0.597,-0.436,-0.735,-5.438,-46.375,5.344,12.92,51.66,-8.50
18210421,0,0,0,99.90,-0.614,-0.415,-0.692,-6.969,-60.875,6.781,12.84,52.75,-8.06
18220363,0,0,0,99.90,-0.589,-0.367,-0.547,-2.406,-108.719,7.750,12.66,53.85,-7.28
18230358,0,0,0,99.90,-0.585,-0.373,-0.505,3.531,-132.219,6.750,12.71,54.86,-6.76
18240369,0,0,0,99.90,-0.603,-0.400,-0.501,9.219,-147.906,5.781,12.64,56.11,-6.63
18250364,0,0,0,99.90,-0.635,-0.432,-0.520,13.188,-156.344,5.656,12.40,57.54,-5.64
18260476,0,0,0,99.90,-0.671,-0.450,-0.534,15.469,-164.000,6.875,12.32,58.71,-4.63
18270357,0,0,0,99.90,-0.702,-0.452,-0.524,16.688,-176.781,9.594,12.19,60.09,-3.72
18280470,0,0,0,99.90,-0.722,-0.449,-0.486,17.375,-193.188,13.188,12.27,61.02,-3.25
18290473,0,0,0,99.90,-0.728,-0.461,-0.433,17.562,-203.875,16.250,12.17,61.88,-2.86
18300480,0,0,0,99.90,-0.721,-0.491,-0.389,17.438,-199.094,17.250,12.06,62.58,-2.34
18310469,0,0,0,99.90,-0.754,-0.580,-0.383,17.062,-145.219,13.031,11.86,63.34,-1.92
18320476,0,0,0,99.90,-0.828,-0.625,-0.396,17.375,-115.219,12.969,11.65,64.12,-1.51
18330389,0,0,0,99.90,-0.893,-0.648,-0.381,18.594,-93.594,18.312,11.65,64.56,-0.94
18340505,0,0,0,99.90,-0.886,-0.628,-0.333,21.438,-77.594,28.281,11.67,64.64,-0.70
18350470,0,0,0,99.90,-0.791,-0.567,-0.280,26.125,-58.625,38.156,11.73,64.58,-0.78
18360413,0,0,0,99.90,-0.663,-0.490,-0.261,31.219,-31.469,42.469,11.86,64.43,-0.60
18370405,0,0,0,99.90,-0.586,-0.429,-0.289,34.281,0.375,38.875,11.99,64.19,-0.44
18380420,0,0,0,99.90,-0.605,-0.399,-0.341,33.844,28.156,29.188,12.09,64.01,-0.68
18390517,0,0,0,99.90,-0.701,-0.388,-0.385,30.375,45.062,17.375,12.12,63.73,-1.12
18400519,0,0,0,99.90,-0.887,-0.372,-0.442,20.312,53.406,-0.469,12.25,63.44,-1.46
18410530,0,0,0,99.90,-0.895,-0.345,-0.475,14.781,56.125,-5.188,12.38,63.13,-1.77
18420514,0,0,0,99.90,-0.852,-0.295,-0.525,8.406,61.062,-7.750,12.43,62.71,-2.21
18430530,0,0,0,99.90,-0.796,-0.241,-0.603,-0.031,69.375,-8.062,12.06,62.19,-2.78
18440539,0,0,0,99.90,-0.771,-0.215,-0.682,-11.531,81.438,-5.438,11.67,62.09,-3.12
18450553,0,0,0,99.90,-0.795,-0.232,-0.711,-24.594,91.344,0.750,11.47,62.19,-3.41
18460577,0,0,0,99.90,-0.845,-0.276,-0.664,-35.406,88.344,10.250,11.21,62.40,-3.35
18470592,0,0,0,99.90,-0.865,-0.325,-0.557,-41.062,67.375,20.969,10.87,62.69,-3.17
18480704,0,0,0,99.90,-0.824,-0.374,-0.426,-41.188,35.344,29.531,10.66,62.97,-3.51
18490689,0,0,0,99.90,-0.744,-0.419,-0.313,-29.156,-11.250,32.594,10.37,63.28,-3.41
18500588,0,0,0,99.90,-0.668,-0.465,-0.253,-25.438,-16.219,30.500,10.01,63.62,-3.25
18510681,0,0,0,99.90,-0.700,-0.455,-0.291,-21.469,-15.125,30.719,9.62,63.75,-3.43
18520615,0,0,0,99.90,-0.743,-0.429,-0.334,-19.594,-11.812,35.375,9.31,63.93,-3.51
18530670,0,0,0,99.90,-0.776,-0.396,-0.358,-18.719,-4.844,44.656,8.92,64.12,-3.56
18540638,0,0,0,99.90,-0.802,-0.361,-0.367,-17.281,8.344,57.688,8.48,64.35,-3.64
18550685,0,0,0,99.90,-0.827,-0.329,-0.381,-14.312,25.812,73.156,7.83,64.64,-3.72
18560731,0,0,0,99.90,-0.839,-0.297,-0.419,-11.125,40.500,88.250,7.05,65.23,-3.90
18570596,0,0,0,99.90,-0.816,-0.260,-0.480,-12.344,43.531,97.406,6.45,65.75,-3.85
18580615,0,0,0,99.90,-0.763,-0.215,-0.526,-23.594,28.312,94.938,5.93,66.20,-3.56
18590697,0,0,0,99.90,-0.712,-0.165,-0.396,-58.688,-39.375,61.594,5.72,66.64,-3.09
18600693,0,0,0,99.90,-0.724,-0.179,-0.300,-55.031,-62.750,45.438,5.49,67.42,-2.78
18610707,0,0,0,99.90,-0.719,-0.203,-0.310,-33.031,-68.188,36.156,5.15,67.91,-2.31
18620716,0,0,0,99.90,-0.683,-0.227,-0.427,-8.250,-63.344,32.438,4.73,68.35,-1.87
18630725,0,0,0,99.90,-0.640,-0.250,-0.556,4.344,-58.844,30.656,4.42,68.90,-1.51
18640670,0,0,0,99.90,-0.629,-0.268,-0.611,1.562,-59.750,28.031,4.26,69.34,-1.27
18650726,0,0,0,99.90,-0.666,-0.275,-0.575,-9.656,-64.406,24.062,4.19,69.71,-1.33
18660727,0,0,0,99.90,-0.738,-0.269,-0.487,-19.969,-67.875,19.750,4.06,69.99,-0.88
18670632,0,0,0,99.90,-0.815,-0.253,-0.399,-24.156,-65.625,16.531,3.82,70.07,-0.75
18680658,0,0,0,99.90,-0.903,-0.222,-0.328,-18.344,-40.344,16.000,3.56,70.25,-0.75
18690652,0,0,0,99.90,-0.914,-0.211,-0.337,-15.469,-22.594,18.000,3.15,70.54,-0.44
18700637,0,0,0,99.90,-0.912,-0.199,-0.352,-15.031,-8.281,20.531,2.89,70.67,-0.23
18710669,0,0,0,99.90,-0.905,-0.180,-0.358,-15.906,-2.188,23.094,2.60,70.88,-0.47
18720746,0,0,0,99.90,-0.890,-0.155,-0.356,-16.375,-5.188,25.344,2.31,71.16,-0.55
18730732,0,0,0,99.90,-0.863,-0.128,-0.353,-15.594,-13.469,26.781,2.24,71.37,-0.29
18740674,0,0,0,99.90,-0.830,-0.108,-0.352,-13.844,-21.062,26.906,2.05,71.68,0.21
18750769,0,0,0,99.90,-0.802,-0.104,-0.348,-11.875,-24.188,25.625,1.79,71.81,0.47
18760757,0,0,0,99.90,-0.791,-0.114,-0.338,-9.938,-23.062,23.469,1.61,71.99,0.62
18770764,0,0,0,99.90,-0.796,-0.129,-0.306,-6.031,-18.562,19.031,1.48,72.33,0.70
18780784,0,0,0,99.90,-0.826,-0.145,-0.291,-3.594,-18.844,17.281,1.35,72.51,0.88
18790696,0,0,0,99.90,-0.840,-0.147,-0.285,-0.875,-20.562,15.656,1.46,72.72,1.35
18800690,0,0,0,99.90,-0.865,-0.151,-0.294,1.531,-22.188,14.312,1.38,72.96,1.61
18810671,0,0,0,99.90,-0.910,-0.158,-0.319,2.844,-22.438,13.844,1.07,73.09,1.66
18820684,0,0,0,99.90,-0.973,-0.161,-0.351,2.500,-21.219,15.281,0.81,73.29,1.69
18830595,0,0,0,99.90,-1.037,-0.157,-0.377,0.688,-19.438,19.188,0.42,73.71,1.79
18840715,0,0,0,99.90,-1.082,-0.143,-0.389,-1.875,-18.219,25.250,0.16,74.07,1.95
18850604,0,0,0,99.90,-1.096,-0.125,-0.390,-4.531,-17.688,32.125,-0.13,74.26,2.05
18860706,0,0,0,99.90,-1.078,-0.114,-0.391,-7.375,-16.750,38.188,-0.60,74.46,2.16
18870697,0,0,0,99.90,-0.985,-0.143,-0.413,-16.750,-9.125,43.375,-1.07,74.59,2.11
18880630,0,0,0,99.90,-0.933,-0.183,-0.431,-25.031,-3.219,42.250,-1.61,74.72,2.16
18890628,0,0,0,99.90,-0.885,-0.230,-0.445,-35.688,1.781,39.125,-2.18,74.93,1.98
18900725,0,0,0,99.90,-0.847,-0.272,-0.443,-47.281,3.906,34.406,-2.44,75.14,2.18
18910636,0,0,0,99.90,-0.829,-0.292,-0.417,-57.219,2.219,28.750,-2.99,75.56,2.63
18920627,0,0,0,99.90,-0.846,-0.277,-0.370,-62.719,-3.406,23.562,-3.56,75.97,2.83
18930728,0,0,0,99.90,-0.903,-0.226,-0.320,-62.312,-12.500,20.688,-4.00,76.49,3.38
18940726,0,0,0,99.90,-0.990,-0.155,-0.290,-56.875,-24.531,21.344,-4.73,77.14,4.03
18950644,0,0,0,99.90,-1.075,-0.092,-0.292,-49.438,-39.188,25.656,-5.43,77.66,4.84
18960768,0,0,0,99.90,-1.113,-0.073,-0.365,-42.531,-74.969,39.344,-5.80,78.16,5.43
18970659,0,0,0,99.90,-1.052,-0.108,-0.380,-46.094,-91.219,44.000,-6.42,78.78,6.40
18980665,0,0,0,99.90,-0.960,-0.146,-0.343,-52.156,-99.625,44.375,-7.05,79.14,7.33
18990668,0,0,0,99.90,-0.868,-0.177,-0.266,-57.156,-96.438,40.156,-7.54,79.61,7.88
19000779,0,0,0,99.90,-0.811,-0.199,-0.195,-58.750,-83.219,32.969,-8.01,79.92,8.40
19010686,0,0,0,99.90,-0.812,-0.207,-0.172,-57.156,-66.281,25.562,-8.48,80.24,8.87
19020787,0,0,0,99.90,-0.865,-0.193,-0.201,-54.750,-51.812,20.562,-9.13,80.42,9.15
19030761,0,0,0,99.90,-0.929,-0.151,-0.237,-53.969,-41.938,19.000,-9.62,80.55,9.28
19040792,0,0,0,99.90,-0.956,-0.092,-0.229,-54.750,-35.125,19.969,-9.80,80.76,9.62
19050713,0,0,0,99.90,-0.846,-0.012,-0.057,-49.000,-25.438,22.469,-10.01,80.89,10.27
19060806,0,0,0,99.90,-0.779,-0.009,0.024,-37.312,-23.844,22.062,-10.40,81.12,10.76
19070797,0,0,0,99.90,-0.760,-0.010,0.042,-21.094,-25.625,21.188,-10.71,81.38,11.13
19080810,0,0,0,99.90,-0.795,0.002,-0.006,-4.969,-30.094,20.906,-10.95,81.43,11.47
19090722,0,0,0,99.90,-0.859,0.029,-0.089,6.562,-35.188,21.781,-11.28,81.61,11.80
19100826,0,0,0,99.90,-0.920,0.057,-0.167,11.688,-38.625,23.531,-11.65,81.77,11.80
19110819,0,0,0,99.90,-0.954,0.072,-0.210,11.875,-38.812,25.156,-11.93,81.95,12.12
19120832,0,0,0,99.90,-0.963,0.074,-0.219,10.344,-35.594,25.375,-11.96,81.93,12.48
19130747,0,0,0,99.90,-0.963,0.078,-0.207,9.594,-30.156,23.438,-11.93,81.90,12.66
19140845,0,0,0,99.90,-0.969,0.095,-0.187,11.750,-18.062,15.281,-11.99,82.11,12.74
19150853,0,0,0,99.90,-0.972,0.125,-0.123,13.188,-10.781,10.781,-11.86,81.98,12.84
19160860,0,0,0,99.90,-0.942,0.110,-0.089,14.500,-1.000,6.312,-11.78,81.90,12.48
19170822,0,0,0,99.90,-0.894,0.076,-0.070,16.312,10.906,1.562,-11.91,81.85,12.01
19180866,0,0,0,99.90,-0.846,0.039,-0.078,18.938,22.688,-3.250,-11.78,81.61,12.09
19190858,0,0,0,99.90,-0.815,0.012,-0.114,21.594,31.875,-7.062,-11.62,81.41,12.19
19200843,0,0,0,99.90,-0.811,-0.001,-0.162,22.375,37.250,-8.812,-11.80,81.41,11.96
19210880,0,0,0,99.90,-0.835,-0.004,-0.199,19.875,39.156,-8.344,-11.70,81.15,11.39
19220774,0,0,0,99.90,-0.882,-0.001,-0.208,14.281,38.625,-6.219,-11.65,80.99,11.13
19230762,0,0,0,99.90,-0.941,0.006,-0.195,7.250,37.125,-3.094,-11.88,80.83,10.82
19240774,0,0,0,99.90,-1.029,0.023,-0.185,-3.969,36.906,4.344,-11.96,80.52,10.43
19250764,0,0,0,99.90,-1.036,0.027,-0.209,-7.094,39.531,7.750,-12.14,80.26,10.19
19260779,0,0,0,99.90,-1.019,0.023,-0.243,-9.156,43.281,10.031,-12.14,80.03,10.09
19270783,0,0,0,99.90,-0.983,0.013,-0.272,-10.938,47.094,10.688,-12.06,79.82,9.67
19280890,0,0,0,99.90,-0.940,0.000,-0.283,-12.719,50.688,9.531,-12.17,79.46,8.81
19290893,0,0,0,99.90,-0.895,-0.013,-0.270,-14.094,54.812,6.406,-12.06,78.96,8.48
19300911,0,0,0,99.90,-0.856,-0.029,-0.238,-14.344,60.469,1.094,-11.78,78.52,8.03
19310813,0,0,0,99.90,-0.830,-0.047,-0.200,-13.062,67.438,-6.562,-11.44,78.13,7.59
19320916,0,0,0,99.90,-0.825,-0.063,-0.168,-10.656,73.531,-15.844,-11.18,77.77,7.02
19330836,0,0,0,99.90,-0.888,-0.063,-0.146,-7.562,72.312,-31.906,-11.00,77.45,6.34
19340927,0,0,0,99.90,-0.941,-0.043,-0.152,-8.875,65.344,-34.812,-10.82,77.01,5.93
19350917,0,0,0,99.90,-0.990,-0.016,-0.169,-11.594,60.188,-33.500,-10.76,76.57,5.56
19360931,0,0,0,99.90,-1.016,0.008,-0.205,-14.219,62.344,-28.906,-10.69,75.84,4.55
19370851,0,0,0,99.90,-1.008,0.016,-0.257,-15.250,74.000,-22.719,-10.45,75.19,3.17
19380850,0,0,0,99.90,-0.968,0.003,-0.317,-13.969,92.469,-16.719,-10.24,74.52,2.52
19390831,0,0,0,99.90,-0.908,-0.026,-0.371,-10.438,112.156,-12.125,-10.06,73.58,1.59
19400936,0,0,0,99.90,-0.855,-0.055,-0.410,-5.781,128.000,-9.406,-10.01,72.57,0.21
19410855,0,0,0,99.90,-0.824,-0.071,-0.432,-1.844,138.781,-8.406,-9.78,71.63,-1.17
19420850,0,0,0,99.90,-0.822,-0.075,-0.446,-1.594,152.188,-9.406,-9.39,70.54,-2.18
19430938,0,0,0,99.90,-0.857,-0.083,-0.454,-5.031,156.094,-10.938,-9.39,69.73,-2.52
19440949,0,0,0,99.90,-0.871,-0.097,-0.469,-9.375,156.812,-13.344,-9.23,68.67,-3.28
19450988,0,0,0,99.90,-0.874,-0.110,-0.490,-13.875,153.469,-16.438,-8.87,67.63,-4.00
19461030,0,0,0,99.90,-0.870,-0.116,-0.513,-18.312,146.938,-19.219,-8.89,66.77,-4.63
19471080,0,0,0,99.90,-0.866,-0.117,-0.533,-22.906,139.938,-20.281,-8.87,65.78,-5.51
19481084,0,0,0,99.90,-0.857,-0.123,-0.545,-27.656,135.344,-18.875,-8.66,64.66,-6.37
19491037,0,0,0,99.90,-0.833,-0.143,-0.546,-32.125,134.031,-15.500,-8.76,63.83,-7.15
19501035,0,0,0,99.90,-0.787,-0.176,-0.544,-36.000,133.906,-12.000,-9.02,63.28,-7.51
19511011,0,0,0,99.90,-0.725,-0.206,-0.552,-39.719,130.875,-10.438,-9.18,62.74,-7.57
19521089,0,0,0,99.90,-0.645,-0.195,-0.612,-52.531,103.531,-16.906,-9.36,62.01,-7.96
19531058,0,0,0,99.90,-0.676,-0.152,-0.621,-62.438,82.344,-23.531,-9.62,61.62,-8.53
19541098,0,0,0,99.90,-0.764,-0.103,-0.577,-71.594,62.906,-29.500,-9.80,61.33,-8.71
19551066,0,0,0,99.90,-0.882,-0.063,-0.487,-76.188,49.219,-32.375,-10.01,60.89,-9.13
19561183,0,0,0,99.90,-0.993,-0.040,-0.393,-73.750,42.438,-30.562,-10.27,60.48,-9.28
19571132,0,0,0,99.90,-1.053,-0.033,-0.340,-64.719,40.500,-23.719,-10.45,60.53,-8.89
19581030,0,0,0,99.90,-1.032,-0.039,-0.351,-52.031,37.938,-12.969,-10.69,60.71,-8.97
19591160,0,0,0,99.90,-0.924,-0.056,-0.409,-39.406,27.625,-1.062,-10.92,60.87,-9.28
19601094,0,0,0,99.90,-0.765,-0.075,-0.477,-29.656,7.219,8.438,-11.10,60.92,-9.26
19611128,0,0,0,99.90,-0.572,-0.074,-0.511,-21.000,-26.094,10.469,-11.10,60.79,-9.23
19621065,0,0,0,99.90,-0.606,-0.042,-0.464,-19.875,-20.469,3.188,-10.95,60.76,-9.28
19631149,0,0,0,99.90,-0.679,-0.007,-0.411,-18.750,-5.875,-7.531,-10.84,60.89,-9.00
19641079,0,0,0,99.90,-0.727,0.009,-0.391,-17.281,4.969,-20.344,-10.79,60.97,-9.07
19651069,0,0,0,99.90,-0.725,-0.003,-0.416,-16.188,5.312,-34.281,-10.61,60.92,-9.31
19661159,0,0,0,99.90,-0.698,-0.026,-0.458,-16.000,-2.281,-48.125,-10.45,60.92,-9.23
19671110,0,0,0,99.90,-0.691,-0.034,-0.481,-15.625,-10.750,-60.031,-10.22,61.07,-9.23
19681089,0,0,0,99.90,-0.731,-0.011,-0.477,-13.000,-15.156,-67.781,-9.98,61.28,-9.02
19691093,0,0,0,99.90,-0.808,0.028,-0.475,-7.031,-15.406,-69.906,-9.59,61.41,-8.58
19701091,0,0,0,99.90,-0.921,0.054,-0.529,9.125,-17.000,-60.188,-9.26,61.44,-8.66
19711189,0,0,0,99.90,-0.906,0.026,-0.553,14.156,-19.656,-53.250,-9.05,61.39,-9.00
19721094,0,0,0,99.90,-0.853,-0.008,-0.562,14.719,-17.062,-48.219,-8.92,61.36,-9.20
19731211,0,0,0,99.90,-0.797,-0.032,-0.572,10.750,-6.625,-45.781,-8.87,61.36,-9.33
19741118,0,0,0,99.90,-0.762,-0.043,-0.589,3.938,5.812,-44.969,-8.79,61.49,-9.33
19751190,0,0,0,99.90,-0.760,-0.052,-0.608,-3.125,10.906,-44.219,-8.76,61.65,-9.23
19761158,0,0,0,99.90,-0.781,-0.075,-0.618,-8.469,4.312,-42.469,-8.66,61.93,-8.76
19771225,0,0,0,99.90,-0.815,-0.123,-0.613,-11.406,-10.125,-39.750,-8.58,62.04,-8.58
19781098,0,0,0,99.90,-0.845,-0.188,-0.601,-12.656,-24.250,-36.875,-8.48,61.85,-8.84
19791235,0,0,0,99.90,-0.862,-0.240,-0.587,-14.000,-25.812,-34.938,-8.48,61.75,-9.00
19801088,0,0,0,99.90,-0.827,-0.199,-0.534,-14.000,-11.594,-37.156,-8.35,61.49,-9.05
19810998,0,0,0,99.90,-0.791,-0.106,-0.479,-11.812,6.656,-41.062,-7.93,61.39,-9.05
19821112,0,0,0,99.90,-0.782,-0.007,-0.409,-6.188,22.719,-45.031,-7.59,61.10,-9.31
19831081,0,0,0,99.90,-0.829,0.060,-0.344,3.188,32.031,-46.562,-7.28,61.00,-9.20
19841137,0,0,0,99.90,-0.921,0.080,-0.302,15.438,32.906,-43.500,-6.94,61.00,-9.02
19851120,0,0,0,99.90,-1.017,0.062,-0.293,28.875,26.625,-35.406,-6.58,61.15,-9.49
19861146,0,0,0,99.90,-1.078,0.028,-0.315,41.500,16.344,-24.031,-6.16,61.13,-9.59
19871016,0,0,0,99.90,-1.094,-0.003,-0.354,51.438,5.500,-12.250,-5.85,61.07,-9.10
19881158,0,0,0,99.90,-1.088,-0.020,-0.391,57.625,-3.750,-2.125,-5.59,61.31,-9.07
19891028,0,0,0,99.90,-1.112,0.020,-0.389,59.906,-15.562,12.688,-5.41,61.52,-9.33
19901167,0,0,0,99.90,-1.148,0.072,-0.341,59.281,-19.438,19.469,-5.04,62.04,-9.07
19911148,0,0,0,99.90,-1.177,0.132,-0.284,60.344,-23.188,26.781,-4.86,62.35,-8.32
19921148,0,0,0,99.90,-1.177,0.184,-0.248,64.531,-26.625,34.250,-4.52,62.56,-7.83
19931041,0,0,0,99.90,-1.139,0.215,-0.260,71.719,-28.594,40.938,-4.11,62.71,-7.59
19941162,0,0,0,99.90,-1.072,0.226,-0.326,80.531,-27.969,46.000,-3.85,62.66,-7.64
19951054,0,0,0,99.90,-0.997,0.225,-0.422,89.062,-24.625,49.031,-3.41,62.84,-7.67
19961168,0,0,0,99.90,-0.935,0.226,-0.508,96.125,-19.156,50.000,-2.78,63.00,-7.38
19971060,0,0,0,99.90,-0.901,0.238,-0.550,101.875,-12.531,49.250,-2.34,63.00,-7.25
19981077,0,0,0,99.90,-0.932,0.292,-0.486,114.812,-1.719,47.250,-1.77,63.13,-7.31
19991177,0,0,0,99.90,-0.971,0.316,-0.426,123.219,0.031,48.812,-1.27,63.21,-7.15
20001189,0,0,0,99.90,-1.006,0.328,-0.383,131.219,-0.938,52.906,-0.83,63.47,-6.58
20011187,0,0,0,99.90,-1.036,0.325,-0.368,136.594,-4.000,59.438,-0.44,63.73,-6.24
20021181,0,0,0,99.90,-1.062,0.314,-0.370,138.344,-7.531,67.938,-0.10,63.99,-5.98
20031199,0,0,0,99.90,-1.079,0.302,-0.372,137.625,-8.906,77.750,0.39,64.14,-5.51
20041115,0,0,0,99.90,-1.075,0.287,-0.366,137.188,-5.812,87.531,0.94,64.30,-5.04
20051210,0,0,0,99.90,-1.043,0.258,-0.360,139.500,1.156,95.688,1.25,64.56,-4.73
20061214,0,0,0,99.90,-0.991,0.198,-0.376,145.188,7.375,101.156,1.61,65.03,-4.47
20071219,0,0,0,99.90,-0.890,-0.027,-0.549,158.812,-5.969,104.500,1.98,65.70,-3.98
20081229,0,0,0,99.90,-0.877,-0.155,-0.686,161.250,-26.438,104.000,2.31,66.35,-3.20
20091227,0,0,0,99.90,-0.904,-0.250,-0.799,158.250,-48.469,103.188,2.34,67.05,-2.47
20101216,0,0,0,99.90,-0.975,-0.284,-0.835,150.312,-66.688,103.031,2.18,67.91,-1.53
20111221,0,0,0,99.90,-1.078,-0.246,-0.775,140.188,-79.875,104.562,1.90,68.90,-0.49
20121225,0,0,0,99.90,-1.174,-0.152,-0.642,131.500,-90.031,108.906,1.64,70.04,0.55
20131134,0,0,0,99.90,-1.228,-0.046,-0.485,126.781,-99.125,116.531,1.48,70.75,1.12
20141160,0,0,0,99.90,-1.238,0.021,-0.358,126.188,-106.062,126.750,1.07,71.45,1.98
20151250,0,0,0,99.90,-1.241,0.018,-0.297,127.719,-106.469,138.812,0.39,72.15,2.73
20161261,0,0,0,99.90,-1.271,-0.052,-0.319,128.562,-96.500,169.062,-0.44,73.03,3.20
20171252,0,0,0,99.90,-1.363,-0.266,-0.597,121.781,-56.344,187.781,-1.40,73.68,3.98
20181165,0,0,0,99.90,-1.336,-0.353,-0.818,112.688,-39.000,206.469,-2.52,74.05,4.21
20191259,0,0,0,99.90,-1.230,-0.413,-1.061,98.094,-27.438,220.438,-3.69,74.41,4.00
20201261,0,0,0,99.90,-1.074,-0.444,-1.301,75.719,-18.688,224.969,-4.97,74.62,3.93
20211274,0,0,0,99.90,-0.929,-0.443,-1.508,43.406,-7.875,218.062,-6.11,74.65,3.54
20221265,0,0,0,99.90,-0.851,-0.399,-1.644,0.594,8.500,201.656,-7.62,74.49,2.96
20231178,0,0,0,99.90,-0.863,-0.304,-1.673,-50.562,30.188,180.531,-9.33,74.26,2.55
20241291,0,0,0,99.90,-0.950,-0.162,-1.573,-104.594,53.094,159.750,-11.15,74.05,2.31
20251189,0,0,0,99.90,-1.075,-0.001,-1.347,-153.750,71.531,142.438,-12.74,73.87,1.95
20261324,0,0,0,99.90,-1.306,0.235,-0.659,-209.156,83.031,120.125,-14.07,73.37,1.27
20271196,0,0,0,99.90,-1.398,0.275,-0.305,-209.219,83.781,114.625,-15.39,72.57,0.86
20281204,0,0,0,99.90,-1.490,0.269,-0.029,-193.875,91.312,113.906,-16.46,72.02,0.36
20291329,0,0,0,99.90,-1.590,0.236,0.112,-169.781,107.000,119.625,-17.91,71.27,-0.13
20301222,0,0,0,99.90,-1.681,0.206,0.103,-145.031,124.562,132.219,-19.50,70.49,-0.52
20311320,0,0,0,99.90,-1.736,0.200,-0.023,-126.719,135.688,149.750,-21.35,69.76,-1.04
20321333,0,0,0,99.90,-1.739,0.221,-0.189,-118.812,136.531,168.656,-23.37,68.95,-1.14
20331333,0,0,0,99.90,-1.702,0.257,-0.315,-121.000,129.000,186.219,-25.43,67.81,-1.43
20341239,0,0,0,99.90,-1.652,0.286,-0.352,-129.406,118.031,202.281,-27.43,66.56,-1.66
20351237,0,0,0,99.90,-1.547,0.272,-0.180,-144.906,100.656,238.812,-29.59,65.34,-1.72
20361355,0,0,0,99.90,-1.469,0.221,-0.039,-145.688,96.219,262.094,-31.17,64.22,-1.92
20371352,0,0,0,99.90,-1.357,0.146,0.107,-140.469,94.656,287.219,-33.18,62.30,-2.18
20381259,0,0,0,99.90,-1.217,0.056,0.241,-129.219,97.281,311.531,-35.02,60.16,-2.50
20391249,0,0,0,99.90,-1.064,-0.035,0.341,-112.250,105.844,332.750,-36.19,57.67,-2.65
20401264,0,0,0,99.90,-0.913,-0.111,0.383,-90.969,120.156,349.594,-37.36,55.02,-2.89
20411261,0,0,0,99.90,-0.768,-0.157,0.352,-68.375,137.188,361.594,-38.61,52.23,-3.46
20421383,0,0,0,99.90,-0.629,-0.172,0.257,-48.500,152.000,368.719,-39.21,49.56,-3.74
20431268,0,0,0,99.90,-0.490,-0.166,0.132,-34.969,160.969,370.750,-39.62,46.85,-3.90
20441284,0,0,0,99.90,-0.357,-0.141,0.025,-29.375,162.750,358.781,-39.96,44.72,-4.13
20451391,0,0,0,99.90,-0.197,-0.030,0.055,-30.719,162.125,347.438,-40.04,41.73,-4.58
20461485,0,0,0,99.90,-0.199,0.047,0.207,-27.875,165.250,336.969,-39.94,38.87,-4.71
20471467,0,0,0,99.90,-0.236,0.114,0.392,-17.562,172.969,330.688,-39.44,35.88,-5.12
20481535,0,0,0,99.90,-0.269,0.146,0.543,-0.156,181.938,329.844,-38.61,32.97,-5.72
20491514,0,0,0,99.90,-0.264,0.137,0.613,20.562,185.625,333.156,-37.49,30.65,-5.85
20501559,0,0,0,99.90,-0.209,0.098,0.604,39.406,178.406,337.688,-36.32,28.44,-6.06
20511541,0,0,0,99.90,-0.123,0.049,0.558,52.781,159.062,340.656,-35.02,26.31,-6.45
20521516,0,0,0,99.90,-0.038,0.004,0.526,60.500,131.469,340.781,-33.83,24.88,-6.71
20531488,0,0,0,99.90,0.025,-0.034,0.532,66.000,102.219,338.094,-32.03,23.11,-7.36
20541491,0,0,0,99.90,0.067,-0.080,0.578,88.281,60.750,326.625,-29.95,21.48,-7.98
20551490,0,0,0,99.90,0.046,-0.083,0.548,108.406,52.469,319.781,-27.66,19.81,-8.53
20561489,0,0,0,99.90,-0.016,-0.075,0.478,131.656,50.844,315.625,-24.96,18.38,-8.92
20571478,0,0,0,99.90,-0.123,-0.070,0.403,155.188,53.188,318.125,-21.74,17.16,-9.67
20581559,0,0,0,99.90,-0.257,-0.094,0.350,177.750,55.312,330.375,-18.25,16.46,-10.48
20591554,0,0,0,99.90,-0.373,-0.172,0.310,199.500,50.312,353.094,-14.64,16.43,-11.15
20601554,0,0,0,99.90,-0.424,-0.314,0.245,219.906,30.312,383.812,-11.91,16.82,-11.91
20611573,0,0,0,99.90,-0.387,-0.492,0.120,236.312,-8.219,416.750,-8.40,18.07,-12.74
20621577,0,0,0,99.90,-0.289,-0.662,-0.059,245.375,-61.406,444.500,-5.23,20.02,-13.47
20631490,0,0,0,99.90,-0.178,-0.868,-0.401,240.375,-178.156,468.781,-1.98,22.41,-14.12
20641494,0,0,0,99.90,-0.261,-0.918,-0.504,234.094,-228.344,470.188,0.96,25.32,-14.22
20651586,0,0,0,99.90,-0.410,-0.969,-0.573,231.844,-267.781,472.094,3.64,28.91,-14.43
20661495,0,0,0,99.90,-0.553,-1.044,-0.639,236.188,-294.875,477.406,6.24,32.40,-14.33
20671596,0,0,0,99.90,-0.632,-1.143,-0.733,246.969,-310.188,484.656,8.32,36.22,-13.44
20681600,0,0,0,99.90,-0.641,-1.245,-0.890,260.906,-316.219,490.125,9.54,39.42,-12.43
20691478,0,0,0,99.90,-0.629,-1.312,-1.130,271.969,-316.969,491.500,10.69,43.71,-11.21
20701492,0,0,0,99.90,-0.661,-1.323,-1.442,273.438,-316.906,489.875,11.10,48.00,-10.01
20711607,0,0,0,99.90,-0.752,-1.293,-1.783,261.062,-318.969,489.094,10.63,52.05,-8.81
20721600,0,0,0,99.90,-0.854,-1.229,-2.393,197.188,-323.125,496.562,9.49,55.82,-7.31
20731607,0,0,0,99.90,-0.771,-1.197,-2.592,152.906,-317.156,497.938,7.88,59.44,-6.01
20741596,0,0,0,99.90,-0.671,-1.136,-2.694,106.250,-304.156,492.281,5.72,62.82,-4.97
20751530,0,0,0,99.90,-0.642,-1.042,-2.704,60.969,-287.781,480.844,3.80,65.03,-3.69
20761526,0,0,0,99.90,-0.712,-0.946,-2.652,19.625,-272.781,468.219,1.07,67.63,-2.05
20771496,0,0,0,99.90,-0.840,-0.877,-2.581,-16.250,-261.844,458.188,-1.92,70.02,-1.04
20781641,0,0,0,99.90,-0.960,-0.850,-2.556,-46.625,-253.969,451.281,-5.23,72.07,0.23
20791506,0,0,0,99.90,-1.014,-0.854,-2.633,-73.312,-246.125,445.406,-8.71,73.61,1.38
20801573,0,0,0,99.90,-0.969,-0.874,-2.823,-100.000,-235.344,437.469,-12.35,74.70,2.31
20811412,0,0,0,99.90,-0.841,-0.894,-3.066,-130.562,-219.000,406.281,-16.02,75.35,3.35
20821524,0,0,0,99.90,-0.629,-0.910,-3.320,-206.906,-162.719,383.344,-19.71,75.63,4.63
20831416,0,0,0,99.90,-0.667,-0.897,-3.255,-248.406,-128.500,360.344,-22.67,75.56,5.80
20841424,0,0,0,99.90,-0.800,-0.872,-3.149,-289.406,-101.875,343.188,-26.81,75.53,7.88
20851521,0,0,0,99.90,-0.971,-0.848,-3.123,-331.344,-89.656,336.656,-31.41,75.01,10.04
20861430,0,0,0,99.90,-1.127,-0.850,-3.242,-378.781,-89.594,342.219,-36.24,73.94,12.66
20871425,0,0,0,99.90,-1.238,-0.901,-3.466,-436.406,-90.750,357.562,-41.00,72.41,15.78
20881543,0,0,0,99.90,-1.302,-1.018,-3.665,-505.031,-80.500,378.312,-45.42,70.23,19.47
20891505,0,0,0,99.90,-1.319,-1.204,-3.699,-580.219,-52.438,399.531,-49.32,67.91,23.84
20901526,0,0,0,99.90,-1.264,-1.439,-3.501,-653.844,-10.062,416.438,-52.23,65.75,28.70
20911514,0,0,0,99.90,-0.804,-1.894,-2.534,-762.812,75.438,417.281,-53.82,64.35,32.42
20921558,0,0,0,99.90,-0.405,-2.000,-1.961,-787.125,101.188,392.344,-55.15,62.79,37.02
20931548,0,0,0,99.90,0.031,-1.960,-1.473,-790.594,112.625,348.375,-55.54,61.65,41.86
20941476,0,0,0,99.90,0.419,-1.768,-1.131,-778.031,111.438,289.875,-55.22,60.89,47.14
20951588,0,0,0,99.90,0.698,-1.478,-0.945,-757.531,97.969,226.281,-54.16,60.45,52.55
20961475,0,0,0,99.90,0.853,-1.190,-0.885,-738.750,72.156,168.312,-52.18,60.22,57.82
20971577,0,0,0,99.90,0.909,-1.000,-0.893,-730.250,38.000,122.656,-49.40,60.06,62.56
20981487,0,0,0,99.90,0.904,-0.945,-0.872,-736.125,4.938,89.688,-47.01,59.98,65.65
20991582,0,0,0,99.90,0.868,-0.988,-0.715,-752.062,-17.500,64.438,-43.42,60.19,69.03
21001607,0,0,0,99.90,0.763,-1.069,0.106,-762.562,-18.594,8.938,-39.47,60.81,71.50
21011589,0,0,0,99.90,0.687,-1.011,0.560,-733.906,-2.812,-31.344,-35.46,61.65,73.24
21021582,0,0,0,99.90,0.569,-0.894,0.835,-682.875,17.594,-80.594,-31.07,62.53,74.39
21031494,0,0,0,99.90,0.379,-0.760,0.847,-622.781,38.031,-134.031,-26.34,63.34,75.06
21041509,0,0,0,99.90,0.097,-0.654,0.626,-571.156,54.625,-183.094,-21.58,63.78,75.32
21051511,0,0,0,99.90,-0.260,-0.602,0.295,-542.250,64.594,-218.281,-16.46,63.86,75.09
21061515,0,0,0,99.90,-0.619,-0.619,0.015,-541.688,65.906,-233.250,-12.40,63.54,74.72
21071637,0,0,0,99.90,-0.884,-0.712,-0.082,-565.062,57.406,-228.438,-7.02,62.84,73.74
21081627,0,0,0,99.90,-0.994,-0.870,0.052,-600.344,40.250,-211.156,-1.87,61.98,71.63
21091516,0,0,0,99.90,-0.963,-1.054,0.364,-651.344,-3.594,-176.969,2.63,60.87,69.81
21101525,0,0,0,99.90,-0.783,-1.306,1.026,-649.875,-21.406,-169.500,6.92,59.59,67.86
21111519,0,0,0,99.90,-0.733,-1.346,1.162,-630.844,-34.844,-166.688,11.10,58.16,65.16
21121643,0,0,0,99.90,-0.700,-1.350,1.141,-602.156,-46.250,-165.156,14.69,56.65,62.45
21131536,0,0,0,99.90,-0.671,-1.333,1.036,-572.938,-58.812,-162.406,17.94,54.96,59.80
21141644,0,0,0,99.90,-0.654,-1.288,0.951,-548.719,-74.562,-156.281,20.07,53.69,57.72
21151644,0,0,0,99.90,-0.661,-1.208,0.960,-528.500,-93.594,-145.031,22.46,52.29,55.12
21161550,0,0,0,99.90,-0.685,-1.104,1.050,-506.812,-114.281,-128.156,24.26,51.09,52.57
21171644,0,0,0,99.90,-0.698,-1.009,1.131,-479.062,-134.719,-107.062,25.84,49.97,49.84
21181663,0,0,0,99.90,-0.667,-0.958,1.098,-446.062,-153.625,-84.688,27.27,48.88,47.37
21191660,0,0,0,99.90,-0.412,-1.027,0.582,-389.750,-179.312,-48.719,28.44,48.07,44.56
21201670,0,0,0,99.90,-0.241,-1.115,0.214,-378.156,-178.375,-37.906,29.51,47.66,41.18
21211569,0,0,0,99.90,-0.115,-1.211,-0.123,-379.312,-162.125,-30.156,30.58,47.50,37.52
21221675,0,0,0,99.90,-0.087,-1.298,-0.374,-390.812,-128.500,-21.812,31.20,47.55,34.63
21231679,0,0,0,99.90,-0.167,-1.365,-0.501,-409.062,-79.750,-9.219,31.59,47.87,31.12
21241702,0,0,0,99.90,-0.333,-1.413,-0.472,-429.312,-22.656,9.562,31.67,48.65,27.59
21251679,0,0,0,99.90,-0.548,-1.447,-0.288,-446.000,33.125,34.625,31.28,49.56,24.00
21261596,0,0,0,99.90,-0.783,-1.476,-0.003,-453.969,78.188,65.312,30.55,50.54,20.28
21271679,0,0,0,99.90,-1.022,-1.503,0.276,-451.062,106.469,101.000,29.33,52.39,17.26
21281715,0,0,0,99.90,-1.489,-1.566,0.378,-428.844,119.312,187.719,27.51,54.68,14.33
21291675,0,0,0,99.90,-1.686,-1.648,0.177,-425.094,120.594,239.156,25.84,56.13,11.78
21301604,0,0,0,99.90,-1.818,-1.802,-0.052,-431.656,130.438,293.719,23.06,58.08,8.22
21311688,0,0,0,99.90,-1.881,-2.006,-0.196,-444.031,151.031,347.188,19.68,59.96,4.81
21321724,0,0,0,99.90,-1.910,-2.202,-0.214,-454.531,177.719,395.188,16.04,61.65,2.24
21331694,0,0,0,99.90,-1.949,-2.335,-0.135,-457.281,202.125,435.125,12.12,62.92,0.29
21341628,0,0,0,99.90,-2.012,-2.392,-0.007,-449.812,215.844,466.781,7.88,64.30,-1.64
21351706,0,0,0,99.90,-2.076,-2.394,0.118,-432.438,213.375,491.469,3.51,65.39,-3.07
21361731,0,0,0,99.90,-2.100,-2.366,0.186,-407.719,193.656,510.938,-0.81,66.09,-3.77
21371707,0,0,0,99.90,-1.925,-2.252,0.028,-355.406,122.969,535.625,-4.00,66.46,-4.11
21381637,0,0,0,99.90,-1.743,-2.177,-0.155,-336.656,90.375,537.812,-8.19,66.48,-4.34
21391732,0,0,0,99.90,-1.543,-2.105,-0.345,-324.594,68.750,531.156,-11.93,66.07,-4.37
21401629,0,0,0,99.90,-1.356,-2.042,-0.514,-318.125,57.469,516.406,-15.42,65.78,-4.47
21411632,0,0,0,99.90,-1.194,-1.974,-0.650,-315.875,50.844,495.938,-18.85,65.62,-4.11
21421734,0,0,0,99.90,-1.050,-1.881,-0.741,-316.594,41.250,472.469,-22.26,65.75,-3.12
21431644,0,0,0,99.90,-0.917,-1.752,-0.769,-318.031,22.125,447.750,-25.56,66.17,-2.05
21441653,0,0,0,99.90,-0.808,-1.589,-0.728,-317.188,-8.875,423.000,-29.04,66.35,-0.88
21451853,0,0,0,99.90,-0.762,-1.410,-0.648,-311.906,-48.531,400.062,-31.90,66.33,0.70
21461899,0,0,0,99.90,-0.806,-1.237,-0.586,-294.812,-122.500,372.281,-35.80,65.81,2.47
21471858,0,0,0,99.90,-1.111,-0.965,-0.702,-288.625,-143.000,373.188,-39.60,64.87,4.42
21481914,0,0,0,99.90,-1.254,-0.875,-0.848,-290.344,-151.875,384.406,-43.16,63.47,7.12
21491840,0,0,0,99.90,-1.309,-0.815,-0.955,-296.344,-156.000,402.344,-46.44,61.85,9.88
21501806,0,0,0,99.90,-1.283,-0.782,-0.974,-301.250,-162.531,421.625,-49.40,59.75,12.48
21511821,0,0,0,99.90,-1.246,-0.770,-0.914,-300.969,-173.312,438.312,-52.16,57.07,15.13
21521957,0,0,0,99.90,-1.275,-0.770,-0.824,-295.781,-183.156,452.156,-54.26,53.92,17.37
21531859,0,0,0,99.90,-1.393,-0.769,-0.741,-289.312,-184.906,466.031,-55.54,51.06,19.32
21541952,0,0,0,99.90,-1.565,-0.753,-0.665,-284.375,-175.688,483.531,-56.84,46.59,21.94
21551939,0,0,0,99.90,-1.735,-0.733,-0.590,-280.312,-157.938,506.688,-57.56,41.76,23.50
21561950,0,0,0,99.90,-1.933,-0.851,-0.529,-267.688,-106.844,569.906,-57.88,36.45,25.09
21571928,0,0,0,99.90,-1.920,-1.029,-0.593,-261.844,-72.469,607.219,-57.67,30.81,27.09
21581862,0,0,0,99.90,-1.800,-1.241,-0.691,-261.156,-34.750,644.469,-56.50,25.04,28.76
21591831,0,0,0,99.90,-1.567,-1.426,-0.749,-266.281,-5.531,677.156,-54.34,19.50,29.82
21601857,0,0,0,99.90,-1.252,-1.542,-0.700,-272.562,-1.000,700.875,-51.51,14.35,30.29
21611930,0,0,0,99.90,-0.918,-1.573,-0.533,-271.906,-28.250,712.406,-49.17,11.02,30.32
21621902,0,0,0,99.90,-0.637,-1.517,-0.284,-256.938,-78.219,710.188,-45.55,7.07,29.48
21631926,0,0,0,99.90,-0.478,-1.390,-0.012,-224.562,-131.875,694.594,-41.37,3.46,28.39
21641953,0,0,0,99.90,-0.495,-1.236,0.211,-177.719,-171.938,668.875,-36.79,0.62,26.49
21651956,0,0,0,99.90,-1.049,-1.096,0.246,-78.344,-205.656,618.312,-31.59,-1.66,23.79
21661969,0,0,0,99.90,-1.453,-1.181,0.032,-46.188,-231.031,615.219,-25.32,-3.54,19.81
21671963,0,0,0,99.90,-1.829,-1.380,-0.217,-30.594,-284.500,639.344,-18.36,-4.34,14.98
21681897,0,0,0,99.90,-2.071,-1.677,-0.371,-24.438,-363.906,691.531,-11.26,-3.56,10.40
21691993,0,0,0,99.90,-2.028,-2.029,-0.398,-16.781,-452.000,760.531,-6.24,-1.79,6.79
21701906,0,0,0,99.90,-1.566,-2.362,-0.402,-3.938,-531.250,823.281,-0.88,2.03,1.59
21711989,0,0,0,99.90,-0.707,-2.583,-0.507,5.406,-596.812,853.438,2.78,7.25,-3.22
21722041,0,0,0,99.90,0.317,-2.598,-0.753,-1.531,-656.125,834.281,4.86,13.39,-7.88
21731904,0,0,0,99.90,1.167,-2.368,-1.111,-29.094,-716.312,768.000,5.95,19.97,-11.31
21742006,0,0,0,99.90,1.585,-1.434,-2.103,-110.875,-811.344,581.062,6.16,26.16,-13.05
21751994,0,0,0,99.90,1.190,-0.979,-2.773,-145.125,-811.594,509.562,5.04,31.49,-14.46
21762042,0,0,0,99.90,0.874,-0.679,-3.523,-173.562,-762.156,468.312,3.04,35.72,-15.55
21772010,0,0,0,99.90,0.817,-0.580,-4.000,-203.156,-664.344,450.031,1.12,37.96,-15.86
21781953,0,0,0,99.90,1.016,-0.651,-4.000,-241.219,-533.781,436.594,-2.03,40.43,-16.04
21791928,0,0,0,99.90,1.231,-0.789,-4.000,-290.938,-396.938,410.250,-5.82,42.61,-16.09
21802075,0,0,0,99.90,1.191,-0.888,-4.000,-350.594,-282.906,365.625,-10.69,44.41,-15.81
21811923,0,0,0,99.90,0.819,-0.916,-4.000,-416.938,-210.719,313.781,-16.38,45.76,-15.16
21822100,0,0,0,99.90,0.265,-0.928,-4.000,-488.875,-179.094,274.594,-22.78,46.23,-13.26
21831956,0,0,0,99.90,-0.237,-1.013,-4.000,-566.531,-169.031,263.156,-29.17,45.94,-10.45
21841970,0,0,0,99.90,-0.503,-1.527,-3.679,-719.656,-131.000,314.344,-33.57,45.24,-8.14
21851973,0,0,0,99.90,-0.255,-1.873,-3.181,-775.156,-86.812,346.312,-39.31,43.65,-4.58
21862090,0,0,0,99.90,0.155,-2.190,-2.570,-805.938,-32.469,361.844,-44.25,42.56,-0.47
21872050,0,0,0,99.90,0.657,-2.427,-1.884,-812.125,14.812,353.375,-48.36,42.15,4.37
21882105,0,0,0,99.90,1.196,-2.551,-1.195,-799.094,34.469,319.438,-51.90,42.28,9.26
21892048,0,0,0,99.90,1.716,-2.544,-0.595,-772.781,17.969,262.094,-54.39,43.21,13.99
21902027,0,0,0,99.90,2.161,-2.405,-0.150,-735.000,-23.219,184.594,-55.87,45.01,17.97
21911997,0,0,0,99.90,2.488,-2.158,0.121,-683.281,-65.938,90.438,-56.89,47.66,21.79
21922150,0,0,0,99.90,2.658,-1.842,0.195,-616.781,-91.125,-14.969,-57.38,49.82,24.57
21931984,0,0,0,99.90,2.428,-1.210,-0.320,-482.250,-76.562,-221.344,-57.54,53.14,28.86
21942110,0,0,0,99.90,2.065,-0.995,-0.768,-448.750,-52.969,-303.094,-57.30,56.78,33.54
21952000,0,0,0,99.90,1.627,-0.886,-1.125,-450.906,-31.969,-365.344,-56.42,60.48,38.01
21962010,0,0,0,99.90,1.186,-0.885,-1.233,-483.156,-19.969,-411.312,-54.57,64.14,42.67
21972107,0,0,0,99.90,0.754,-0.950,-1.016,-530.281,-18.062,-445.906,-51.87,67.21,47.27
21982123,0,0,0,99.90,0.286,-1.001,-0.500,-573.469,-23.344,-470.344,-48.85,69.68,51.19
21991897,0,0,0,99.90,-0.241,-0.957,0.191,-597.125,-32.281,-480.344,-46.54,71.27,53.61
22001919,0,0,0,99.90,-0.733,-0.796,0.871,-593.750,-44.469,-470.781,-42.77,72.90,56.60
22011897,0,0,0,99.90,-0.995,-0.581,1.341,-565.875,-62.125,-444.750,-38.30,74.39,59.20
22021911,0,0,0,99.90,-0.555,-0.373,1.245,-485.000,-105.812,-405.281,-33.46,75.69,60.84
22032020,0,0,0,99.90,-0.229,-0.449,0.840,-458.281,-110.719,-419.344,-28.29,76.78,61.78
22041912,0,0,0,99.90,-0.190,-0.588,0.484,-447.219,-88.875,-451.188,-23.04,77.69,62.09
22052001,0,0,0,99.90,-0.506,-0.725,0.347,-445.469,-39.562,-482.375,-17.91,78.52,61.67
22061987,0,0,0,99.90,-1.030,-0.824,0.447,-443.312,25.062,-496.812,-13.00,78.57,60.76
22072017,0,0,0,99.90,-1.518,-0.881,0.678,-434.281,84.344,-490.031,-9.36,78.23,59.75
22081931,0,0,0,99.90,-1.777,-0.916,0.910,-417.750,118.438,-469.188,-4.47,77.30,58.84
22092022,0,0,0,99.90,-1.768,-0.938,1.046,-397.250,117.188,-446.719,0.08,75.74,57.82
22102032,0,0,0,99.90,-1.616,-0.931,1.037,-378.656,82.844,-431.469,4.26,73.87,56.76
22111929,0,0,0,99.90,-1.514,-0.861,0.895,-368.875,-38.688,-411.469,7.83,71.73,55.98
22122037,0,0,0,99.90,-1.836,-0.525,0.538,-389.406,-100.250,-386.594,11.00,69.60,54.86
22131941,0,0,0,99.90,-2.105,-0.368,0.476,-410.406,-150.000,-342.312,13.86,67.91,53.48
22142043,0,0,0,99.90,-2.209,-0.317,0.476,-426.406,-182.656,-282.125,16.22,66.38,51.87
22151954,0,0,0,99.90,-2.023,-0.414,0.480,-431.719,-194.375,-218.344,17.84,65.26,50.36
22161963,0,0,0,99.90,-1.560,-0.649,0.460,-426.250,-183.469,-166.656,20.07,63.70,48.18
22171957,0,0,0,99.90,-0.975,-0.954,0.416,-414.406,-154.312,-138.406,22.15,62.30,45.86
22182071,0,0,0,99.90,-0.478,-1.233,0.362,-403.281,-118.375,-134.875,24.08,60.74,43.00
22191960,0,0,0,99.90,-0.221,-1.404,0.315,-399.281,-89.500,-147.938,25.77,59.05,40.25
22202065,0,0,0,99.90,-0.246,-1.442,0.283,-404.656,-75.969,-165.250,27.09,58.03,37.21
22211966,0,0,0,99.90,-0.896,-1.270,0.172,-431.969,-75.719,-169.594,27.95,57.67,33.38
22221968,0,0,0,99.90,-1.359,-1.178,0.020,-448.312,-63.906,-142.250,28.18,57.59,30.19
22232084,0,0,0,99.90,-1.822,-1.146,-0.207,-467.906,-32.844,-91.156,27.90,58.24,25.61
22241972,0,0,0,99.90,-2.220,-1.206,-0.477,-494.562,15.312,-19.281,26.70,59.54,20.88
22252066,0,0,0,99.90,-2.494,-1.382,-0.722,-530.875,72.469,65.188,24.73,60.94,16.07
22262056,0,0,0,99.90,-2.597,-1.682,-0.849,-574.781,128.844,151.438,21.97,62.22,11.39
22272085,0,0,0,99.90,-2.512,-2.057,-0.766,-617.844,175.969,228.781,18.64,63.21,7.07
22281993,0,0,0,99.90,-2.263,-2.405,-0.456,-647.906,208.406,289.062,15.16,64.14,3.67
22292088,0,0,0,99.90,-1.933,-2.611,-0.004,-655.531,224.031,328.062,11.39,65.16,0.96
22302111,0,0,0,99.90,-1.485,-2.400,0.759,-602.969,202.094,350.312,8.35,66.09,-0.34
22312108,0,0,0,99.90,-1.541,-2.063,0.860,-557.375,165.375,351.469,3.87,67.26,-1.85
22322015,0,0,0,99.90,-1.778,-1.696,0.733,-511.656,118.844,363.844,-1.17,68.15,-2.73
22332010,0,0,0,99.90,-2.083,-1.394,0.406,-474.375,73.625,397.812,-6.84,69.21,-2.89
22342128,0,0,0,99.90,-2.301,-1.215,-0.046,-452.438,37.906,454.719,-13.05,69.97,-2.39
22352125,0,0,0,99.90,-2.295,-1.166,-0.511,-449.438,9.000,524.031,-19.11,70.90,-0.34
22362135,0,0,0,99.90,-1.994,-1.195,-0.875,-463.250,-26.500,584.375,-24.83,71.99,2.70
22372028,0,0,0,99.90,-1.459,-1.227,-1.072,-485.781,-81.719,612.250,-30.08,72.51,5.85
22381991,0,0,0,99.90,-0.887,-1.224,-1.087,-505.719,-155.969,596.375,-33.46,72.25,8.03
22392029,0,0,0,99.90,-0.495,-1.133,-0.572,-494.031,-272.156,489.406,-37.47,71.42,9.96
22402044,0,0,0,99.90,-0.423,-1.061,-0.103,-448.219,-263.500,444.125,-40.69,70.10,11.57
22412041,0,0,0,99.90,-0.537,-0.905,0.337,-377.875,-208.125,417.406,-43.50,68.38,13.18
22422061,0,0,0,99.90,-0.635,-0.689,0.571,-296.688,-134.094,403.438,-46.05,66.64,14.72
22432157,0,0,0,99.90,-0.724,-0.449,0.516,-224.281,-73.750,395.094,-48.39,64.58,16.04
22442066,0,0,0,99.90,-0.848,-0.225,0.256,-176.406,-45.219,390.594,-50.67,61.96,17.58
22452181,0,0,0,99.90,-1.034,-0.051,-0.038,-157.125,-48.094,392.875,-52.99,59.20,19.16
22462218,0,0,0,99.90,-1.260,0.049,-0.235,-158.656,-71.656,405.438,-54.39,56.81,20.23
22472312,0,0,0,99.90,-1.457,0.065,-0.305,-168.188,-103.594,428.625,-55.77,53.25,21.63
22482358,0,0,0,99.90,-1.552,0.006,-0.290,-174.625,-132.969,485.938,-56.81,49.61,22.85
22492361,0,0,0,99.90,-1.357,-0.219,-0.232,-160.125,-153.812,504.938,-57.62,45.79,23.53
22502364,0,0,0,99.90,-1.161,-0.318,-0.248,-143.875,-142.344,512.094,-58.19,41.76,24.39
22512291,0,0,0,99.90,-1.004,-0.379,-0.268,-129.000,-121.750,511.688,-58.16,37.18,25.14
22522360,0,0,0,99.90,-0.945,-0.400,-0.247,-118.719,-98.500,513.500,-57.69,32.58,25.71
22532249,0,0,0,99.90,-0.964,-0.381,-0.171,-113.156,-79.438,526.031,-56.91,27.90,26.03
22542379,0,0,0,99.90,-0.974,-0.313,-0.071,-110.906,-68.344,549.281,-55.82,24.13,26.34
22552316,0,0,0,99.90,-0.909,-0.189,-0.014,-110.688,-60.844,575.781,-53.77,18.93,27.27
22562395,0,0,0,99.90,-0.797,-0.037,-0.051,-113.312,-47.594,599.344,-50.83,13.62,28.57
22572364,0,0,0,99.90,-0.728,0.076,-0.159,-122.031,-24.438,621.938,-46.70,8.53,29.33
22582378,0,0,0,99.90,-0.799,-0.031,-0.267,-164.594,23.125,692.219,-41.99,3.95,29.90
22592275,0,0,0,99.90,-0.714,-0.223,-0.214,-192.594,28.219,735.844,-37.49,0.52,30.47
22602264,0,0,0,99.90,-0.366,-0.410,-0.151,-218.688,17.281,760.750,-33.77,-1.61,30.68
22612371,0,0,0,99.90,0.223,-0.520,-0.132,-241.406,-4.125,741.719,-31.04,-3.02,30.84
22622315,0,0,0,99.90,0.857,-0.529,-0.169,-264.656,-30.219,665.750,-29.41,-3.69,30.97
22632312,0,0,0,99.90,1.288,-0.476,-0.211,-294.406,-59.344,542.844,-27.66,-4.26,30.71
